time,seconds_elapsed,z,y,x
1.73E+18,0.026268799,0.058643986,-0.043279368,-0.095315531
1.73E+18,0.036265869,0.139824063,-0.066950344,-0.116388857
1.73E+18,0.046261719,0.231477037,-0.097791061,-0.134967715
1.73E+18,0.056257813,0.330086976,-0.131990835,-0.154027432
1.73E+18,0.066254883,0.451945782,-0.163615555,-0.162867665
1.73E+18,0.076250977,0.601544619,-0.20983924,-0.162603483
1.73E+18,0.086248047,0.767305434,-0.218632072,-0.156149894
1.73E+18,0.096243896,0.909393847,-0.214302301,-0.160074592
1.73E+18,0.106240723,1.01362896,-0.228489473,-0.18342796
1.73E+18,0.116236816,1.068315148,-0.240594074,-0.20370473
1.73E+18,0.126233887,1.086607099,-0.228137881,-0.211568758
1.73E+18,0.136229736,1.06459856,-0.190429643,-0.215142176
1.73E+18,0.146227051,0.999338686,-0.161374569,-0.228574172
1.73E+18,0.1562229,0.899854183,-0.138909474,-0.255222291
1.73E+18,0.166219727,0.783232629,-0.057792343,-0.267719179
1.73E+18,0.17621582,0.689575136,0.123123914,-0.274370164
1.73E+18,0.186212891,0.62354809,0.268355221,-0.273808509
1.73E+18,0.19620874,0.54509908,0.33395341,-0.240160525
1.73E+18,0.206205078,0.451570868,0.334863573,-0.164878562
1.73E+18,0.216200684,0.406016409,0.346677095,-0.058974225
1.73E+18,0.226196777,0.428334683,0.412407458,0.052043296
1.73E+18,0.236193848,0.481023729,0.557941198,0.169981644
1.73E+18,0.246189941,0.53462851,0.695581257,0.293520391
1.73E+18,0.256186768,0.661343575,0.750613093,0.408096761
1.73E+18,0.266182861,0.871847332,0.695064604,0.481333166
1.73E+18,0.276179688,1.172726274,0.586025953,0.520216405
1.73E+18,0.286175781,1.512700558,0.492253572,0.521520615
1.73E+18,0.296172852,1.895763516,0.404522628,0.476271361
1.73E+18,0.306168945,2.21596384,0.278184265,0.423782736
1.73E+18,0.316166016,2.54326272,0.111851215,0.289313883
1.73E+18,0.326161865,2.816324711,-0.082478546,0.168335482
1.73E+18,0.336157715,3.062021017,-0.326729268,0.037529528
1.73E+18,0.346155029,3.255827904,-0.665457726,-0.081160754
1.73E+18,0.356150879,3.506690264,-1.033945084,-0.256494492
1.73E+18,0.366147949,3.721567869,-1.320244908,-0.454659998
1.73E+18,0.376144043,3.881787539,-1.499988079,-0.663022816
1.73E+18,0.386141113,4.000974655,-1.730369568,-0.857629418
1.73E+18,0.396136719,4.136883259,-2.234716177,-1.069185972
1.73E+18,0.406133789,4.25891161,-2.951663971,-1.274051905
1.73E+18,0.416129883,4.286661148,-3.392850876,-1.326079607
1.73E+18,0.426126709,4.284660816,-3.485938787,-1.239365697
1.73E+18,0.436123047,4.219051838,-3.492776155,-1.059948802
1.73E+18,0.446119629,4.05892992,-3.561514139,-0.853344798
1.73E+18,0.456115723,3.827591896,-3.604113817,-0.657094359
1.73E+18,0.466112793,3.514573812,-3.714328527,-0.543524325
1.73E+18,0.476108887,3.135987282,-4.027720451,-0.454221338
1.73E+18,0.48610498,2.619682074,-4.014104843,-0.269118577
1.73E+18,0.496102051,2.032630205,-3.770071268,0.002077756
1.73E+18,0.506097656,1.353766561,-3.579176903,0.234047711
1.73E+18,0.516094971,0.709028542,-3.317233324,0.37611112
1.73E+18,0.52609082,0.002361814,-2.922374249,0.489754915
1.73E+18,0.536087891,-0.676534176,-2.674236059,0.473772228
1.73E+18,0.546083984,-1.344816089,-2.501497269,0.263676316
1.73E+18,0.556081055,-1.996423721,-2.257986546,-0.051720791
1.73E+18,0.56607666,-2.585099459,-2.055234671,-0.375044942
1.73E+18,0.576073975,-2.953369141,-1.979917169,-0.669236898
1.73E+18,0.586069824,-3.034295321,-1.967341065,-0.896234214
1.73E+18,0.596066895,-2.975241184,-2.026609421,-1.034289837
1.73E+18,0.606062988,-2.972140312,-2.246227741,-1.040038943
1.73E+18,0.616059814,-2.789101124,-2.596096277,-0.807105303
1.73E+18,0.626055664,-2.47723341,-2.651151657,-0.545551181
1.73E+18,0.636052002,-2.163882017,-2.515649319,-0.412772685
1.73E+18,0.646048828,-1.689988732,-2.22510004,-0.330820233
1.73E+18,0.656044922,-1.150659204,-1.470585465,-0.536908925
1.73E+18,0.666041992,-0.771636486,-0.778061926,-0.735814452
1.73E+18,0.676037842,-0.609565258,-0.43644762,-0.976168215
1.73E+18,0.686034912,-0.555571496,-0.431317657,-1.298384428
1.73E+18,0.696030762,-0.476282001,-0.673973441,-1.663688302
1.73E+18,0.706027832,-0.387091368,-0.802496433,-2.024122
1.73E+18,0.716023926,-0.42157343,-0.638192713,-2.266218901
1.73E+18,0.726020996,-0.590267837,-0.539923668,-2.468552351
1.73E+18,0.736016602,-0.54433018,-0.180930868,-2.254647017
1.73E+18,0.746013916,-0.308045655,-0.196801722,-1.854280591
1.73E+18,0.756009766,-0.127879336,-0.451590091,-1.537938952
1.73E+18,0.766006836,0.003943432,-0.605197132,-1.429081559
1.73E+18,0.77600293,0.01476199,-0.546260059,-1.506798506
1.73E+18,0.785999023,-0.171444699,-0.520065486,-1.701907158
1.73E+18,0.795995605,-0.507694602,-0.498926133,-1.818265796
1.73E+18,0.805991943,-0.854034483,-0.466289848,-1.738469124
1.73E+18,0.81598877,-1.132656813,0.001477086,-1.480009913
1.73E+18,0.825984863,-1.233054996,0.725443959,-1.280790806
1.73E+18,0.835981934,-1.213675976,1.514329076,-1.293547869
1.73E+18,0.845978027,-1.055194855,2.266819,-1.705351591
1.73E+18,0.855975098,-0.838317156,2.528532505,-2.174974203
1.73E+18,0.865970947,-0.743919849,2.485396624,-2.450264454
1.73E+18,0.875967773,-0.655822456,2.153183222,-2.626302719
1.73E+18,0.885963867,-0.657128215,1.586389065,-2.652535915
1.73E+18,0.895960938,-0.761120081,0.880704939,-2.781520605
1.73E+18,0.905956787,-0.998559892,0.21379301,-3.146888971
1.73E+18,0.915954102,-1.340392113,-0.100566,-4.069719315
1.73E+18,0.925949707,-1.883305907,-0.159953699,-5.639695168
1.73E+18,0.935945801,-2.45207572,-0.328927815,-6.756613255
1.73E+18,0.945942871,-2.601860762,-0.229689792,-7.002837181
1.73E+18,0.955938965,-2.401613474,0.263302356,-6.182226658
1.73E+18,0.965935791,-2.202223301,0.844577312,-4.639596462
1.73E+18,0.975931885,-2.414273977,1.457312107,-3.132023811
1.73E+18,0.985928711,-2.834673643,1.935485244,-2.336457491
1.73E+18,0.995924805,-3.174836874,2.221682787,-1.963691235
1.73E+18,1.005921875,-3.248044491,2.399319887,-1.780440092
1.73E+18,1.015917969,-3.057599783,2.262909174,-1.570744634
1.73E+18,1.025915039,-2.817177773,1.997490644,-1.366430879
1.73E+18,1.035910889,-2.735805035,1.728682637,-1.503269792
1.73E+18,1.045907715,-2.70255208,1.613393307,-1.807257891
1.73E+18,1.055904053,-2.645983458,1.661015511,-2.029076099
1.73E+18,1.065900879,-2.765268087,1.701963663,-2.148783445
1.73E+18,1.075896973,-2.70100379,1.721130133,-2.100273609
1.73E+18,1.085892822,-2.715847015,2.118922234,-1.952906132
1.73E+18,1.095889648,-2.555282354,2.642803431,-1.650923371
1.73E+18,1.105885742,-2.174940586,2.963845015,-1.202013731
1.73E+18,1.115882813,-1.707420349,3.021348238,-0.734795213
1.73E+18,1.125878906,-1.21523273,2.698731899,-0.452677429
1.73E+18,1.135875732,-0.773496032,2.190469027,-0.374402046
1.73E+18,1.145871826,-0.322174489,1.502910018,-0.266188323
1.73E+18,1.155868652,0.131208435,0.804089129,-0.146699205
1.73E+18,1.165864746,0.48581472,0.266355664,0.048855379
1.73E+18,1.175861816,0.75324434,-0.038407717,0.253718495
1.73E+18,1.18585791,0.969213665,-0.109190188,0.40866816
1.73E+18,1.19585498,1.087116838,0.167701334,0.451902986
1.73E+18,1.20585083,1.220995545,0.455495656,0.428845853
1.73E+18,1.2158479,1.23753202,0.792105079,0.396780878
1.73E+18,1.225843994,1.341907382,0.749047577,0.321631134
1.73E+18,1.235840088,2.332508802,0.279605269,0.025444213
1.73E+18,1.245837158,3.055904865,-0.320521623,-0.227931812
1.73E+18,1.255833008,3.812638044,-1.01265502,-0.456610262
1.73E+18,1.265830322,4.593022346,-1.995054841,-0.595095217
1.73E+18,1.275825928,5.472544193,-3.049034834,-0.665190697
1.73E+18,1.285822998,6.479257584,-4.056551456,-0.59857136
1.73E+18,1.295819092,7.193135262,-4.912661076,-0.461756736
1.73E+18,1.305815918,7.683833122,-5.453629494,-0.352861315
1.73E+18,1.315812012,7.594936848,-6.050958157,-0.060831856
1.73E+18,1.325809082,7.370658875,-7.338769436,0.861415565
1.73E+18,1.335804932,7.385372639,-9.171795845,1.137324929
1.73E+18,1.345802002,6.654360771,-11.53577232,1.220292687
1.73E+18,1.355798096,6.523098946,-13.55790901,1.301025867
1.73E+18,1.365794189,6.83564043,-14.18036366,1.498466372
1.73E+18,1.37579126,7.120632648,-13.09078217,1.431465745
1.73E+18,1.385786865,7.388654709,-9.974598885,0.895069897
1.73E+18,1.395783936,7.566883087,-5.912212372,0.033760469
1.73E+18,1.405780029,7.55106926,-2.534660101,-1.029761791
1.73E+18,1.4157771,7.129857063,-0.383349121,-2.101960421
1.73E+18,1.425772949,6.141174793,0.71193856,-3.10474062
1.73E+18,1.435770264,4.259564877,0.748918414,-4.045713902
1.73E+18,1.445765869,2.019498348,0.587602377,-4.682728767
1.73E+18,1.455762939,0.51880163,1.233228445,-4.665670395
1.73E+18,1.465759033,-0.313496888,2.419599533,-4.128472328
1.73E+18,1.475756104,-0.674307525,3.496561289,-3.305448771
1.73E+18,1.485751953,-0.588222086,3.992888689,-2.367940664
1.73E+18,1.495749023,-0.300898969,3.851212502,-1.437031627
1.73E+18,1.505744873,0.029224262,3.247045279,-0.5281955
1.73E+18,1.515740967,0.257713616,2.284081221,0.428183496
1.73E+18,1.525738037,0.308250666,1.360409021,1.332466125
1.73E+18,1.535734131,0.207152784,0.801446676,2.063511848
1.73E+18,1.545731201,-0.01621897,0.702745616,2.5531528
1.73E+18,1.555727051,-0.217132643,1.06721437,2.786456823
1.73E+18,1.565723877,-0.281455308,1.888803363,2.722765446
1.73E+18,1.575719971,-0.241519362,2.609986544,2.42474103
1.73E+18,1.585717041,-0.19641833,2.865785599,2.070929527
1.73E+18,1.595712891,-0.138246909,2.641863346,1.78236115
1.73E+18,1.605710205,-0.064815469,2.136335373,1.544891953
1.73E+18,1.615705811,-0.022328192,1.594140649,1.302909613
1.73E+18,1.625703125,0.088641129,1.062174797,0.996730566
1.73E+18,1.635698975,0.199871242,0.595180333,0.640702426
1.73E+18,1.645696045,0.268918157,0.242246628,0.28777799
1.73E+18,1.655692139,0.313396394,-0.018806273,-0.015812254
1.73E+18,1.665688232,0.356148005,-0.222621351,-0.238023758
1.73E+18,1.675684814,0.455578208,-0.408354998,-0.380294591
1.73E+18,1.685680908,0.600793004,-0.538605332,-0.452158809
1.73E+18,1.695677979,0.722660065,-0.604876995,-0.477913171
1.73E+18,1.705674072,0.778001428,-0.606323659,-0.481730342
1.73E+18,1.715671143,0.745812118,-0.542174518,-0.463511914
1.73E+18,1.725667236,0.732071459,-0.413172483,-0.419466347
1.73E+18,1.735663818,0.718241394,-0.33371228,-0.354050845
1.73E+18,1.745660156,0.71825248,-0.315306813,-0.241971746
1.73E+18,1.755656982,0.722507417,-0.310134947,-0.066641457
1.73E+18,1.765653076,0.698171437,-0.254862905,0.115640998
1.73E+18,1.775650146,0.692788422,-0.125455633,0.292864233
1.73E+18,1.785645996,0.686885715,0.057076558,0.47499904
1.73E+18,1.795641846,0.703898013,0.283449233,0.660450935
1.73E+18,1.805638916,0.712105513,0.516497254,0.829371631
1.73E+18,1.81563501,0.691813529,0.66380471,0.991732597
1.73E+18,1.82563208,0.671786308,0.711623967,1.101644158
1.73E+18,1.835628174,0.681870878,0.68690902,1.190692782
1.73E+18,1.845625,0.75557214,0.637598634,1.225993037
1.73E+18,1.855621094,0.866506398,0.574908316,1.178271294
1.73E+18,1.86561792,0.912072599,0.631842792,1.123022795
1.73E+18,1.875614014,0.866826832,0.85441035,1.107945323
1.73E+18,1.885611084,0.774817288,1.100348473,1.139525056
1.73E+18,1.895607178,0.66091466,1.245147228,1.191279531
1.73E+18,1.905604004,0.603310168,1.233158112,1.247376919
1.73E+18,1.915600098,0.618318677,1.129506826,1.323453665
1.73E+18,1.925595947,0.658604145,0.964628994,1.356361866
1.73E+18,1.935593018,0.735795617,0.79125452,1.376164794
1.73E+18,1.945589111,0.804679692,0.669439018,1.365218639
1.73E+18,1.955586182,0.804988623,0.594347715,1.351382732
1.73E+18,1.965581787,0.741247356,0.545315921,1.359448671
1.73E+18,1.975578857,0.62533623,0.50365001,1.349469543
1.73E+18,1.985574951,0.574057281,0.486022919,1.317372918
1.73E+18,1.995572021,0.546127915,0.472079664,1.266799212
1.73E+18,2.005568115,0.567984998,0.459615737,1.17476666
1.73E+18,2.015564941,0.615218341,0.459458888,1.037708879
1.73E+18,2.025561035,0.663602471,0.476648927,0.87605387
1.73E+18,2.035557861,0.700453162,0.500056207,0.707246721
1.73E+18,2.045553955,0.738321066,0.5119102,0.523690403
1.73E+18,2.055551025,0.744043887,0.480720848,0.337254792
1.73E+18,2.065547119,0.706436634,0.432157964,0.186038435
1.73E+18,2.075542969,0.65900147,0.350222349,0.047406241
1.73E+18,2.085540039,0.62826848,0.25128144,-0.092334427
1.73E+18,2.095535889,0.619976699,0.176209867,-0.196079716
1.73E+18,2.105532959,0.637544751,0.065767169,-0.258217931
1.73E+18,2.115529053,0.628433287,-0.040725984,-0.25810501
1.73E+18,2.125526123,0.63957274,-0.063344784,-0.211476222
1.73E+18,2.135521973,0.660551786,-0.219290435,-0.217073917
1.73E+18,2.145519287,0.64854902,-0.526985466,-0.336572587
1.73E+18,2.155514893,0.523583889,-0.766500592,-0.478783816
1.73E+18,2.165512207,0.391220897,-0.763029754,-0.515377402
1.73E+18,2.175508057,0.330559939,-0.71141237,-0.479929626
1.73E+18,2.18550415,0.333478928,-0.609506726,-0.397521853
1.73E+18,2.195501221,0.379200339,-0.52387172,-0.294725686
1.73E+18,2.20549707,0.40084216,-0.458989382,-0.185010895
1.73E+18,2.215493896,0.396841556,-0.357552767,-0.049275976
1.73E+18,2.225490479,0.370633781,-0.262171626,0.095206253
1.73E+18,2.235487549,0.34659183,-0.214323953,0.206173778
1.73E+18,2.245483398,0.309380203,-0.214829534,0.286573589
1.73E+18,2.255480713,0.262615114,-0.242493123,0.343751669
1.73E+18,2.265476318,0.262724549,-0.247541413,0.385758758
1.73E+18,2.275473389,0.288618475,-0.246149644,0.440695792
1.73E+18,2.285469482,0.332853556,-0.248294309,0.499883831
1.73E+18,2.295466553,0.32779035,-0.240287781,0.576904833
1.73E+18,2.305462402,0.279223263,-0.242340565,0.645470083
1.73E+18,2.315459717,0.251714945,-0.217197925,0.68066746
1.73E+18,2.325455322,0.273000449,-0.209670544,0.681807816
1.73E+18,2.335451416,0.257932305,-0.166563272,0.680256009
1.73E+18,2.345448486,0.263484359,-0.145716518,0.679815173
1.73E+18,2.35544458,0.291275501,-0.151720077,0.682867944
1.73E+18,2.365441406,0.323214442,-0.182191283,0.689358711
1.73E+18,2.375437744,0.357135415,-0.219657436,0.673985124
1.73E+18,2.385434326,0.385393888,-0.228661522,0.634199917
1.73E+18,2.39543042,0.464518517,-0.266760707,0.583946645
1.73E+18,2.40542749,0.454947472,-0.267276376,0.55063802
1.73E+18,2.415423584,0.407322705,-0.225557953,0.51525712
1.73E+18,2.425420654,0.393650472,-0.162917435,0.457155436
1.73E+18,2.435416504,0.380957842,-0.110726133,0.39825803
1.73E+18,2.445412354,0.355544269,-0.07466647,0.354815841
1.73E+18,2.455409424,0.345175803,-0.066631183,0.326502442
1.73E+18,2.465405518,0.329418451,-0.035325989,0.301270157
1.73E+18,2.475402344,0.315002501,-0.014469976,0.277141631
1.73E+18,2.485398682,0.308720469,-0.017087054,0.253737509
1.73E+18,2.495395508,0.309188128,-0.044898976,0.234049022
1.73E+18,2.505391357,0.307952791,-0.079078041,0.212847814
1.73E+18,2.515388428,0.297920942,-0.11069189,0.192459181
1.73E+18,2.525384521,0.270118445,-0.142864838,0.174192846
1.73E+18,2.535381592,0.235848099,-0.1801126,0.17020902
1.73E+18,2.545377686,0.295995593,-0.2804932,0.14573662
1.73E+18,2.555374512,0.298839033,-0.332491934,0.144899845
1.73E+18,2.565370361,0.152406693,-0.364750594,0.151171744
1.73E+18,2.575367432,0.091527104,-0.422406167,0.131802037
1.73E+18,2.585363525,0.076919965,-0.501050889,0.113185629
1.73E+18,2.595359375,0.026567843,-0.570034504,0.1281984
1.73E+18,2.605356689,-0.007582884,-0.621374488,0.151567832
1.73E+18,2.615352295,-0.031330559,-0.636696696,0.165362999
1.73E+18,2.625349365,-0.058372565,-0.636959016,0.16968745
1.73E+18,2.635345459,-0.083224915,-0.641063988,0.165117458
1.73E+18,2.645342285,-0.07692901,-0.672023594,0.161686793
1.73E+18,2.655338623,-0.080416419,-0.685062945,0.176619127
1.73E+18,2.665335449,-0.056584597,-0.70555377,0.209398612
1.73E+18,2.675331299,-0.013505837,-0.724508286,0.237302423
1.73E+18,2.685328369,-0.052165557,-0.741876245,0.242255315
1.73E+18,2.695324463,-0.062680513,-0.773516178,0.18876946
1.73E+18,2.705321533,-0.073205151,-0.798258722,0.10803432
1.73E+18,2.715317627,-0.057050146,-0.802951455,0.036432572
1.73E+18,2.725313232,-0.034652229,-0.799576819,-0.005356689
1.73E+18,2.735310547,-0.017678037,-0.778995395,-0.026559979
1.73E+18,2.745306396,0.001678026,-0.756813228,-0.063087061
1.73E+18,2.755303467,0.016049774,-0.755774617,-0.121309884
1.73E+18,2.765299561,0.027451806,-0.761923432,-0.210566595
1.73E+18,2.775296631,0.037478875,-0.76951158,-0.313355029
1.73E+18,2.785292236,0.041460145,-0.752712309,-0.432600856
1.73E+18,2.795289551,0.071133085,-0.738145351,-0.541523039
1.73E+18,2.8052854,0.103949681,-0.705983579,-0.610255003
1.73E+18,2.815282471,0.117142983,-0.643663228,-0.6255216
1.73E+18,2.825278564,0.116952091,-0.58980757,-0.63201499
1.73E+18,2.835275391,0.123064578,-0.530872583,-0.64796865
1.73E+18,2.84527124,0.133586302,-0.463623434,-0.671214938
1.73E+18,2.855267578,0.249405846,-0.47515732,-0.702756047
1.73E+18,2.865264404,0.242924407,-0.417662174,-0.705059111
1.73E+18,2.875260498,0.146661788,-0.343202055,-0.691099107
1.73E+18,2.885257568,0.102798365,-0.292226672,-0.649127424
1.73E+18,2.895253662,0.1186511,-0.250301063,-0.60036093
1.73E+18,2.905250732,0.139308438,-0.240921974,-0.532334268
1.73E+18,2.915246582,0.167365909,-0.227620557,-0.468152821
1.73E+18,2.925243408,0.26532492,-0.24706699,-0.420731157
1.73E+18,2.935239502,0.341205835,-0.246269628,-0.389492273
1.73E+18,2.945236572,0.355916381,-0.277945995,-0.369508058
1.73E+18,2.955232422,0.263465554,-0.304075062,-0.349252045
1.73E+18,2.965228516,0.119823895,-0.313248187,-0.322355926
1.73E+18,2.975225342,0.031639442,-0.311260939,-0.262699276
1.73E+18,2.985221436,0.029802106,-0.321251631,-0.182655916
1.73E+18,2.995218506,0.048232775,-0.316940516,-0.10787861
1.73E+18,3.0052146,0.04688707,-0.282369345,-0.070550531
1.73E+18,3.015211426,0.106090739,-0.273767352,-0.065061219
1.73E+18,3.02520752,0.214858145,-0.2775442,-0.067646392
1.73E+18,3.035204346,0.275676757,-0.234426841,-0.07775522
1.73E+18,3.045200439,0.239677712,-0.157325491,-0.069214806
1.73E+18,3.05519751,0.09102007,-0.127156943,-0.022889644
1.73E+18,3.065193604,-0.018403031,-0.128117979,0.04063021
1.73E+18,3.075190674,0.027867526,-0.174430892,0.095626891
1.73E+18,3.085186523,0.086338259,-0.208080262,0.121777676
1.73E+18,3.095182373,0.089728996,-0.207970813,0.127084032
1.73E+18,3.105179688,0.086409181,-0.214399979,0.119958505
1.73E+18,3.115175537,0.102469914,-0.202829063,0.107822746
1.73E+18,3.125172607,0.116465062,-0.153792307,0.10959626
1.73E+18,3.135168457,0.134405717,-0.046421114,0.115463473
1.73E+18,3.145165283,0.162825644,0.126249641,0.118953362
1.73E+18,3.155161377,0.181203857,0.267364949,0.108002707
1.73E+18,3.165158447,0.20227398,0.339013577,0.092932411
1.73E+18,3.175154541,0.220043123,0.332730114,0.06317611
1.73E+18,3.185151367,0.226391256,0.28108421,0.00537977
1.73E+18,3.195147705,0.208902285,0.262320638,-0.076878883
1.73E+18,3.205144287,0.19853279,0.258346856,-0.183414727
1.73E+18,3.215140381,0.191173151,0.235923022,-0.28354001
1.73E+18,3.225137695,0.164138317,0.168275133,-0.334295332
1.73E+18,3.235134521,0.134039268,0.07297577,-0.345045447
1.73E+18,3.245130615,0.124590561,-0.02089023,-0.321030796
1.73E+18,3.255127686,0.130049244,-0.083588235,-0.275532275
1.73E+18,3.265123535,0.134004876,-0.076342851,-0.224784508
1.73E+18,3.275120361,0.098264985,-0.018625764,-0.172145262
1.73E+18,3.285116699,0.050959889,0.042201698,-0.120055757
1.73E+18,3.295113525,0.001571566,0.077791922,-0.076721333
1.73E+18,3.305109619,-0.040827241,0.08934439,-0.046588317
1.73E+18,3.315106689,-0.075017437,0.083416723,-0.030366207
1.73E+18,3.325102539,-0.10866183,0.06536901,-0.016870717
1.73E+18,3.335098389,-0.141569704,0.072046883,-0.003090721
1.73E+18,3.345095703,-0.177823558,0.095000461,0.008195603
1.73E+18,3.355091553,-0.214948028,0.111348547,0.019945204
1.73E+18,3.365088867,-0.239520863,0.11605037,0.038587142
1.73E+18,3.375084717,-0.271035373,0.092183381,0.067764468
1.73E+18,3.385081543,-0.270630121,0.074046068,0.096751414
1.73E+18,3.395077637,-0.265275836,0.077183537,0.118702255
1.73E+18,3.405074707,-0.274476409,0.102510117,0.124161549
1.73E+18,3.415070557,-0.28270638,0.134426773,0.122069366
1.73E+18,3.425067627,-0.253663242,0.128506377,0.108031578
1.73E+18,3.435063721,-0.224920526,0.099103756,0.098218098
1.73E+18,3.445060303,-0.235801563,0.066792302,0.0754852
1.73E+18,3.455056641,-0.233690217,-0.020943405,0.034133241
1.73E+18,3.465052734,-0.144766748,-0.184836119,-0.041824728
1.73E+18,3.475049561,-0.045323782,-0.349939317,-0.163582057
1.73E+18,3.485045898,-0.036100019,-0.439958572,-0.310542315
1.73E+18,3.495042725,-0.157112196,-0.453372389,-0.460498273
1.73E+18,3.505038574,-0.296761215,-0.478556752,-0.575181663
1.73E+18,3.515035645,-0.330643833,-0.621918142,-0.634653509
1.73E+18,3.525031494,-0.318269223,-0.805008233,-0.64735961
1.73E+18,3.535028809,-0.330487281,-0.949626684,-0.628640771
1.73E+18,3.545024658,-0.35998708,-1.012958169,-0.600244462
1.73E+18,3.555021729,-0.383653015,-0.976882219,-0.577082157
1.73E+18,3.565017578,-0.457376838,-0.855606496,-0.564054072
1.73E+18,3.575014648,-0.487016499,-0.705225527,-0.53180027
1.73E+18,3.585010498,-0.484493911,-0.558443427,-0.488482058
1.73E+18,3.595006836,-0.491111606,-0.410889119,-0.42249769
1.73E+18,3.605003662,-0.489416122,-0.255025893,-0.348680705
1.73E+18,3.614999512,-0.485551357,-0.072264329,-0.27683419
1.73E+18,3.624996582,-0.482215703,0.113042429,-0.212370083
1.73E+18,3.634992676,-0.473985493,0.261361599,-0.151825249
1.73E+18,3.644989502,-0.474993259,0.355531752,-0.101271622
1.73E+18,3.65498584,-0.465796322,0.413884819,-0.053549103
1.73E+18,3.664982666,-0.447898626,0.452687114,-0.026964931
1.73E+18,3.674978516,-0.437401772,0.466422379,-0.036775216
1.73E+18,3.684975586,-0.411126554,0.461090326,-0.087299339
1.73E+18,3.69497168,-0.382286936,0.399315625,-0.18264237
1.73E+18,3.704967529,-0.359139502,0.271241397,-0.305660367
1.73E+18,3.714964844,-0.346284419,0.090252176,-0.442090392
1.73E+18,3.724960693,-0.340297759,-0.147267461,-0.563425779
1.73E+18,3.73495752,-0.333286703,-0.384178013,-0.658697426
1.73E+18,3.744953613,-0.332114726,-0.584870934,-0.719897151
1.73E+18,3.754950439,-0.352843702,-0.732284665,-0.745880544
1.73E+18,3.764946777,-0.380791694,-0.816151023,-0.748686433
1.73E+18,3.774943604,-0.409993798,-0.846028268,-0.742665291
1.73E+18,3.784939697,-0.445259631,-0.840673983,-0.737548828
1.73E+18,3.794936523,-0.483696967,-0.794470668,-0.736203253
1.73E+18,3.804932617,-0.531322181,-0.722176552,-0.732741654
1.73E+18,3.814929688,-0.573206484,-0.636764407,-0.714382112
1.73E+18,3.824925781,-0.607390046,-0.551284373,-0.674014032
1.73E+18,3.834921631,-0.663028836,-0.505838037,-0.609002829
1.73E+18,3.844918701,-0.704928517,-0.487942934,-0.529756308
1.73E+18,3.854914551,-0.735953271,-0.469021976,-0.450695008
1.73E+18,3.864911621,-0.767286181,-0.416498661,-0.37837553
1.73E+18,3.874907471,-0.799276888,-0.336459756,-0.315058619
1.73E+18,3.884904785,-0.822885752,-0.255357414,-0.258309007
1.73E+18,3.894900635,-0.839778721,-0.165582806,-0.208968893
1.73E+18,3.904897949,-0.824579179,-0.056016546,-0.164663911
1.73E+18,3.914893555,-0.784327686,0.071067639,-0.121617638
1.73E+18,3.924890625,-0.760599136,0.172234133,-0.090938136
1.73E+18,3.934886719,-0.762618124,0.227142125,-0.068226427
1.73E+18,3.944883545,-0.763200104,0.221230105,-0.050271854
1.73E+18,3.954879639,-0.753571987,0.175036773,-0.044854984
1.73E+18,3.964875732,-0.741184413,0.124078162,-0.06023341
1.73E+18,3.974872559,-0.710664034,0.085420787,-0.105756685
1.73E+18,3.984868652,-0.660828769,0.044771243,-0.164641723
1.73E+18,3.994865723,-0.602365196,-0.006582492,-0.222330317
1.73E+18,4.004861816,-0.564123571,-0.105370842,-0.256132603
1.73E+18,4.014858887,-0.533712924,-0.249496058,-0.268199921
1.73E+18,4.024854492,-0.522316933,-0.393410683,-0.251086086
1.73E+18,4.034851563,-0.537189126,-0.527670741,-0.224810809
1.73E+18,4.044847412,-0.536693037,-0.608179569,-0.201335475
1.73E+18,4.054844727,-0.550970733,-0.641343892,-0.173120886
1.73E+18,4.064840576,-0.564717233,-0.647842705,-0.146713719
1.73E+18,4.074836426,-0.559238553,-0.651585221,-0.127865985
1.73E+18,4.084833496,-0.53780508,-0.681159377,-0.12417423
1.73E+18,4.09482959,-0.561715484,-0.751885772,-0.152507588
1.73E+18,4.10482666,-0.608624816,-0.863427877,-0.212898657
1.73E+18,4.114822754,-0.643115938,-1.000478506,-0.292653143
1.73E+18,4.12481958,-0.643658638,-1.158653259,-0.382821858
1.73E+18,4.134815918,-0.633114636,-1.310320854,-0.459626615
1.73E+18,4.1448125,-0.590429127,-1.425601244,-0.48982361
1.73E+18,4.154808594,-0.543593943,-1.484260798,-0.465679944
1.73E+18,4.164805664,-0.526039779,-1.508829594,-0.412157655
1.73E+18,4.174801758,-0.543784201,-1.514691472,-0.33224526
1.73E+18,4.184797607,-0.561362565,-1.488046288,-0.242697716
1.73E+18,4.194794922,-0.568856716,-1.417670131,-0.155662686
1.73E+18,4.204790527,-0.545862019,-1.280271769,-0.087954476
1.73E+18,4.214787598,-0.501006901,-1.073720813,-0.042396311
1.73E+18,4.224782227,-0.450790346,-0.826726496,-0.031763908
1.73E+18,4.234779297,-0.375297189,-0.578633308,-0.052011922
1.73E+18,4.244774902,-0.28626734,-0.398170859,-0.110918768
1.73E+18,4.254771973,-0.181324407,-0.329331338,-0.222529456
1.73E+18,4.264768066,-0.095669128,-0.355281919,-0.369478852
1.73E+18,4.274765137,-0.040958747,-0.441388309,-0.51020664
1.73E+18,4.284760986,0.009867386,-0.560474813,-0.614142478
1.73E+18,4.294758301,0.060002457,-0.647993982,-0.665358245
1.73E+18,4.304753906,0.118706942,-0.673683703,-0.670193076
1.73E+18,4.31475,0.181695774,-0.651392221,-0.641750216
1.73E+18,4.32474707,0.203874066,-0.629557669,-0.584937274
1.73E+18,4.334743164,0.216640994,-0.646044731,-0.513416469
1.73E+18,4.344740234,0.206725568,-0.723501325,-0.447093159
1.73E+18,4.354736084,0.158387333,-0.828038931,-0.389399767
1.73E+18,4.36473291,0.124212727,-0.938609123,-0.346659392
1.73E+18,4.374729248,0.104930378,-1.042623639,-0.325474739
1.73E+18,4.384726074,0.103165582,-1.126754642,-0.323413134
1.73E+18,4.394722168,0.109686598,-1.200266719,-0.334169924
1.73E+18,4.404719238,0.09982536,-1.268252015,-0.33908534
1.73E+18,4.414715088,0.074524529,-1.297931075,-0.340427041
1.73E+18,4.424710938,0.048906136,-1.277579427,-0.342440099
1.73E+18,4.434708252,0.025900153,-1.187602401,-0.365441293
1.73E+18,4.444704102,0.074960284,-1.025684834,-0.375082254
1.73E+18,4.454700928,0.096611522,-0.807566047,-0.361083359
1.73E+18,4.464697266,0.090632066,-0.545042753,-0.314838648
1.73E+18,4.474693848,0.090991326,-0.237497672,-0.228020668
1.73E+18,4.484689941,0.122249126,0.094627187,-0.124396712
1.73E+18,4.494687012,0.17636615,0.464216411,-0.016774114
1.73E+18,4.504683105,0.204295024,0.83366704,0.075432584
1.73E+18,4.514680176,0.227320448,1.123457551,0.136063963
1.73E+18,4.52467627,0.246465847,1.297031045,0.156012952
1.73E+18,4.534672119,0.297569782,1.364362359,0.128004491
1.73E+18,4.544669189,0.375647634,1.349220157,0.066823803
1.73E+18,4.554665039,0.434403867,1.314171314,-0.030010065
1.73E+18,4.564662109,0.449702352,1.253730059,-0.143213898
1.73E+18,4.574658203,0.450893581,1.119349122,-0.255433649
1.73E+18,4.584655273,0.467927635,0.897818625,-0.354170263
1.73E+18,4.594650879,0.496561408,0.629132807,-0.445473284
1.73E+18,4.604648193,0.537463725,0.362434179,-0.520746291
1.73E+18,4.614644043,0.573972464,0.087547734,-0.578267395
1.73E+18,4.624641357,0.602245808,-0.191297159,-0.600804567
1.73E+18,4.634637207,0.615740538,-0.473840952,-0.572423041
1.73E+18,4.644633057,0.60465467,-0.734445095,-0.507095277
1.73E+18,4.654630127,0.571053803,-0.944205761,-0.412952274
1.73E+18,4.664626221,0.539065719,-1.098545671,-0.280251116
1.73E+18,4.674623047,0.49838087,-1.17442584,-0.107936062
1.73E+18,4.684619141,0.429232299,-1.163352609,0.076158367
1.73E+18,4.694616211,0.346169889,-1.057461619,0.240075409
1.73E+18,4.704612061,0.297138333,-0.871205449,0.367879212
1.73E+18,4.714609131,0.2643255,-0.63323015,0.45307532
1.73E+18,4.724605225,0.255318791,-0.377894044,0.506009042
1.73E+18,4.734602051,0.259266138,-0.110098809,0.541890383
1.73E+18,4.744598145,0.26188758,0.161969215,0.559459448
1.73E+18,4.754595215,0.256010264,0.443902612,0.558476746
1.73E+18,4.76459082,0.248089954,0.708965957,0.54375422
1.73E+18,4.774587158,0.2494708,0.924067616,0.519352973
1.73E+18,4.784583984,0.247505352,1.053324938,0.488916367
1.73E+18,4.794580078,0.229884282,1.081793308,0.445752919
1.73E+18,4.804577148,0.224321634,1.021425843,0.388193041
1.73E+18,4.814572998,0.238508567,0.847828984,0.309838593
1.73E+18,4.824570068,0.284130812,0.566911459,0.219637468
1.73E+18,4.834566162,0.345108956,0.203094617,0.126689687
1.73E+18,4.844562988,0.404187053,-0.214947626,-0.066407263
1.73E+18,4.854559326,0.422524005,-0.613816977,-0.352356464
1.73E+18,4.864556152,0.502266943,-0.805853724,-0.762542963
1.73E+18,4.874552246,0.534703434,-0.660916507,-1.15909338
1.73E+18,4.884547852,0.516665936,-0.442337096,-1.436928391
1.73E+18,4.894545166,0.47514382,-0.33585301,-1.55510211
1.73E+18,4.904541016,0.478729993,-0.462714344,-1.567060113
1.73E+18,4.91453833,0.518913388,-0.703059018,-1.461374164
1.73E+18,4.92453418,0.513373137,-0.942394555,-1.265034437
1.73E+18,4.93453125,0.48578465,-1.079149365,-0.990388751
1.73E+18,4.9445271,0.47320801,-0.960144639,-0.683730841
1.73E+18,4.954523926,0.442431182,-0.658013523,-0.346217036
1.73E+18,4.96452002,0.385179192,-0.287598878,0.029629486
1.73E+18,4.97451709,0.338472933,0.122628309,0.404584974
1.73E+18,4.984513184,0.333826542,0.613083363,0.757395983
1.73E+18,4.994509033,0.356907874,1.092215061,1.046255469
1.73E+18,5.004506104,0.468917757,1.491655111,1.262733102
1.73E+18,5.014502197,0.663857698,1.781442642,1.447795153
1.73E+18,5.024499268,0.800515473,1.883560658,1.586737275
1.73E+18,5.034495117,0.903724134,1.856902122,1.638673425
1.73E+18,5.044492188,0.988264859,1.710589409,1.566479206
1.73E+18,5.054488037,0.907940984,1.523311138,1.378710032
1.73E+18,5.064485107,0.588130891,1.278156996,1.082437515
1.73E+18,5.074480957,0.456790745,1.060740352,0.802276134
1.73E+18,5.084478271,0.259274244,0.845129848,0.555387318
1.73E+18,5.094474121,-0.028981538,0.682729483,0.35576719
1.73E+18,5.104469971,-0.096565403,0.57745111,0.206831425
1.73E+18,5.114467041,-0.039391324,0.491453141,0.098988846
1.73E+18,5.124463135,0.023184819,0.40965277,0.009724675
1.73E+18,5.134459961,0.066048399,0.368789226,-0.093694665
1.73E+18,5.144456299,0.076742642,0.420652628,-0.231969252
1.73E+18,5.154453125,0.058180407,0.520909965,-0.411880434
1.73E+18,5.164448975,0.01516533,0.611079276,-0.609766483
1.73E+18,5.174446045,0.023892775,0.682416856,-0.784975827
1.73E+18,5.184442139,0.077321418,0.702173769,-0.87943238
1.73E+18,5.194439209,0.150237694,0.671589732,-0.876393676
1.73E+18,5.204435303,0.171818212,0.663515091,-0.794997454
1.73E+18,5.214431152,0.135987774,0.74220562,-0.67987752
1.73E+18,5.224427734,0.059127882,0.909306407,-0.543052793
1.73E+18,5.234423584,-0.002084875,1.101620317,-0.381899893
1.73E+18,5.244420898,-0.010505703,1.26732254,-0.194838583
1.73E+18,5.254416748,0.005912684,1.378545403,0.022108374
1.73E+18,5.264413818,0.022271689,1.42802763,0.24784939
1.73E+18,5.274409912,0.035961136,1.433630824,0.43375054
1.73E+18,5.284406494,0.030600183,1.421254873,0.529626727
1.73E+18,5.294402832,0.037561152,1.334635019,0.537489712
1.73E+18,5.304399658,0.041533444,1.162062526,0.488399833
1.73E+18,5.314395752,0.055119291,0.988333881,0.44816348
1.73E+18,5.32439209,0.06427864,0.852326393,0.445555449
1.73E+18,5.334388916,0.072140031,0.817989945,0.468869567
1.73E+18,5.344384766,0.079598755,0.833545923,0.488641709
1.73E+18,5.354381836,0.081008099,0.840163648,0.480858356
1.73E+18,5.364377686,0.09049122,0.787687004,0.450930595
1.73E+18,5.374374756,0.123276062,0.682448208,0.413498253
1.73E+18,5.38437085,0.168462649,0.582460821,0.390699685
1.73E+18,5.39436792,0.194063351,0.499607742,0.363402009
1.73E+18,5.404363525,0.20235756,0.474081188,0.328607827
1.73E+18,5.41436084,0.199987873,0.500600934,0.279277027
1.73E+18,5.424356689,0.201333061,0.562174082,0.220572278
1.73E+18,5.434352783,0.223079368,0.572357178,0.182362303
1.73E+18,5.444349854,0.25207606,0.563046038,0.168981448
1.73E+18,5.454345703,0.264938861,0.529827654,0.184243485
1.73E+18,5.464342773,0.262222499,0.50125128,0.214042664
1.73E+18,5.474338867,0.268463343,0.481899649,0.230928436
1.73E+18,5.484335693,0.26786086,0.456016868,0.223461956
1.73E+18,5.494332031,0.27192831,0.454343617,0.18842195
1.73E+18,5.504328857,0.269148707,0.439382583,0.138849258
1.73E+18,5.514324707,0.28883186,0.433762491,0.09308736
1.73E+18,5.524321777,0.313697726,0.402136773,0.063704781
1.73E+18,5.534317871,0.291848361,0.388246268,0.068428166
1.73E+18,5.544313721,0.252695262,0.379410207,0.092770822
1.73E+18,5.554310791,0.244622663,0.369455576,0.136153996
1.73E+18,5.564306641,0.247749969,0.321704119,0.193230405
1.73E+18,5.574303467,0.248678073,0.279394746,0.260074675
1.73E+18,5.584299805,0.232402429,0.261721492,0.333236754
1.73E+18,5.594296631,0.226995945,0.282969534,0.391214579
1.73E+18,5.604292725,0.224659547,0.374335706,0.42012018
1.73E+18,5.614289795,0.205469072,0.535849035,0.418474883
1.73E+18,5.624285645,0.160382137,0.67066294,0.386864454
1.73E+18,5.634282715,0.119137511,0.684250355,0.337833524
1.73E+18,5.644278809,0.115690842,0.573552907,0.297709018
1.73E+18,5.654274658,0.087580644,0.437028378,0.289205015
1.73E+18,5.664271973,0.063080534,0.343765378,0.298685491
1.73E+18,5.674267822,0.04399579,0.305384696,0.310638815
1.73E+18,5.684264648,0.056462105,0.321535826,0.308239013
1.73E+18,5.694260742,0.056361441,0.362835854,0.30491513
1.73E+18,5.704257813,0.03840236,0.400659233,0.31336382
1.73E+18,5.714253662,0.055138461,0.446012318,0.326235145
1.73E+18,5.724250977,0.085839562,0.471642941,0.324744999
1.73E+18,5.734246826,0.096346259,0.423024535,0.284863919
1.73E+18,5.744243896,0.08852613,0.344599724,0.225641742
1.73E+18,5.754239746,0.081637859,0.3245565,0.164770141
1.73E+18,5.76423584,0.066077299,0.318422794,0.113503836
1.73E+18,5.774232666,0.057610314,0.28144294,0.075173497
1.73E+18,5.784229004,0.04948318,0.201148137,0.06648615
1.73E+18,5.79422583,0.085390314,0.101007417,0.099053681
1.73E+18,5.80422168,0.114535592,-0.029855143,0.178216025
1.73E+18,5.81421875,0.148133233,-0.123230629,0.298869491
1.73E+18,5.824214844,0.197620749,-0.164023653,0.468157798
1.73E+18,5.834211914,0.272221476,-0.165222079,0.675963998
1.73E+18,5.844207764,0.33750993,-0.156022742,0.886828125
1.73E+18,5.854204834,0.344200045,-0.184418961,1.057497025
1.73E+18,5.864200684,0.333000213,-0.224917084,1.158229232
1.73E+18,5.874196777,0.318822354,-0.300862461,1.190881968
1.73E+18,5.884193604,0.325343221,-0.372876048,1.160828233
1.73E+18,5.894189941,0.335809201,-0.465962321,1.105332017
1.73E+18,5.904186768,0.328932345,-0.574652433,1.031123638
1.73E+18,5.914182617,0.329382956,-0.690107942,0.942913353
1.73E+18,5.924179688,0.32471332,-0.843205392,0.855454624
1.73E+18,5.934175781,0.302002937,-1.00458622,0.758574903
1.73E+18,5.944172607,0.231024623,-1.060137749,0.658116758
1.73E+18,5.954168945,0.120627545,-0.937618196,0.543480217
1.73E+18,5.964165771,0.03183971,-0.746213973,0.408993036
1.73E+18,5.974161621,0.015609342,-0.533640444,0.276145786
1.73E+18,5.984157715,0.002572664,-0.463960886,0.111812353
1.73E+18,5.994154785,-0.027629446,-0.38051635,-0.053150237
1.73E+18,6.004150635,-0.043505419,-0.300674558,-0.189326227
1.73E+18,6.014147949,-0.011813002,-0.234117374,-0.264196992
1.73E+18,6.024143799,0.033349186,-0.211519361,-0.254962623
1.73E+18,6.034141113,0.078580573,-0.288333714,-0.182442069
1.73E+18,6.044136719,0.085925318,-0.419376761,-0.077720635
1.73E+18,6.054133789,0.111173682,-0.499282241,0.025528522
1.73E+18,6.064129883,0.108290717,-0.461240143,0.09957809
1.73E+18,6.074126709,0.101877563,-0.386454314,0.122821897
1.73E+18,6.084122803,0.094373144,-0.363541543,0.088647835
1.73E+18,6.094118896,0.074398905,-0.36512053,0.017213598
1.73E+18,6.104115723,0.076516919,-0.310293555,-0.080076165
1.73E+18,6.114111816,0.06248207,-0.228119045,-0.188768819
1.73E+18,6.124108887,0.018530916,-0.192380935,-0.30999136
1.73E+18,6.13410498,-0.019642303,-0.20660834,-0.41479528
1.73E+18,6.144101807,-0.02784387,-0.213826403,-0.4933438
1.73E+18,6.154097656,-0.020377431,-0.221963689,-0.540723324
1.73E+18,6.164094727,-0.017322689,-0.221349731,-0.572581172
1.73E+18,6.174090576,-0.040414959,-0.189965442,-0.613571525
1.73E+18,6.184087891,-0.077228837,-0.150456041,-0.641436696
1.73E+18,6.19408374,-0.096268043,-0.131968632,-0.639458537
1.73E+18,6.20407959,-0.104537435,-0.151228249,-0.593561888
1.73E+18,6.21407666,-0.111369506,-0.140693858,-0.505266964
1.73E+18,6.224073486,-0.128498048,-0.050849777,-0.38760668
1.73E+18,6.234070313,-0.154573053,0.154385388,-0.249693528
1.73E+18,6.244066406,-0.177649081,0.439196885,-0.092594467
1.73E+18,6.254063477,-0.167415351,0.739081919,0.089820877
1.73E+18,6.26405957,-0.143645748,1.033153296,0.298386961
1.73E+18,6.274056152,-0.14388676,1.300825477,0.512305617
1.73E+18,6.284052246,-0.125839934,1.471679449,0.67194128
1.73E+18,6.29404834,-0.168818563,1.516393065,0.742546439
1.73E+18,6.304045166,-0.302724093,1.332844615,0.677918732
1.73E+18,6.314041504,-0.433936179,0.942235351,0.469136775
1.73E+18,6.324038086,-0.481073648,0.493002862,0.18601346
1.73E+18,6.33403418,-0.469497144,0.149134442,-0.086852692
1.73E+18,6.34403125,-0.467988223,-0.027098911,-0.288474232
1.73E+18,6.354027344,-0.471001983,-0.064331673,-0.398660928
1.73E+18,6.364024414,-0.473342538,-0.062084284,-0.458778352
1.73E+18,6.374020508,-0.485724092,-0.083144031,-0.516207337
1.73E+18,6.384017334,-0.496559441,-0.1541733,-0.588092506
1.73E+18,6.394013428,-0.514927506,-0.266285449,-0.675602078
1.73E+18,6.404009277,-0.528205931,-0.370608151,-0.761070609
1.73E+18,6.414006348,-0.538582444,-0.450146914,-0.825785458
1.73E+18,6.424002441,-0.546441853,-0.521065176,-0.848974884
1.73E+18,6.433999512,-0.554073393,-0.58975184,-0.820952058
1.73E+18,6.443995117,-0.575403452,-0.645998538,-0.746940434
1.73E+18,6.453992432,-0.610387266,-0.706380606,-0.650026917
1.73E+18,6.463988281,-0.636071146,-0.762289286,-0.549698412
1.73E+18,6.473985596,-0.619928896,-0.771940351,-0.476585627
1.73E+18,6.483981445,-0.589660108,-0.734752417,-0.429324299
1.73E+18,6.493978516,-0.569021404,-0.686903954,-0.399855614
1.73E+18,6.503974121,-0.573830485,-0.633838594,-0.37782371
1.73E+18,6.513970459,-0.579030097,-0.535252392,-0.362273782
1.73E+18,6.523967285,-0.582589626,-0.406175911,-0.362446725
1.73E+18,6.533963379,-0.621600151,-0.306892216,-0.374311656
1.73E+18,6.543960449,-0.650820434,-0.256423891,-0.396234334
1.73E+18,6.553956299,-0.663187087,-0.213577375,-0.410041749
1.73E+18,6.563953369,-0.677102387,-0.141703486,-0.409357786
1.73E+18,6.573949463,-0.701744378,-0.032837987,-0.394755155
1.73E+18,6.583946289,-0.726074278,0.070735164,-0.353468329
1.73E+18,6.593942383,-0.739958644,0.142737716,-0.286280245
1.73E+18,6.603938477,-0.746218562,0.191227749,-0.199276432
1.73E+18,6.613935059,-0.748890221,0.244126379,-0.115295522
1.73E+18,6.623931396,-0.762435913,0.352846116,-0.086515084
1.73E+18,6.633928223,-0.736716986,0.537061453,-0.140720531
1.73E+18,6.643924316,-0.621410847,0.726505339,-0.272183031
1.73E+18,6.653921387,-0.377144128,0.870796978,-0.410074323
1.73E+18,6.66391748,-0.126807481,0.914666414,-0.443156838
1.73E+18,6.673914551,0.043949608,0.755663157,-0.304287106
1.73E+18,6.6839104,0.03083498,0.385265648,-0.061854586
1.73E+18,6.693907227,-0.124908544,0.013579203,0.215750664
1.73E+18,6.70390332,-0.221124649,-0.338498563,0.471657693
1.73E+18,6.713899414,-0.207742795,-0.595009744,0.635066807
1.73E+18,6.723896484,-0.098424509,-0.740120709,0.686388314
1.73E+18,6.73389209,-0.001118192,-0.852763891,0.621100366
1.73E+18,6.743889404,-0.008177452,-0.932027161,0.442583621
1.73E+18,6.753885254,-0.052988596,-1.042026162,0.184300929
1.73E+18,6.763882568,-0.087832361,-1.204316258,-0.091904938
1.73E+18,6.773878418,-0.115327641,-1.388955116,-0.327876449
1.73E+18,6.783875488,-0.136104003,-1.544837594,-0.48628974
1.73E+18,6.793871338,-0.163418174,-1.618602633,-0.565860987
1.73E+18,6.803867432,-0.175578967,-1.617938399,-0.579518199
1.73E+18,6.813864258,-0.20975399,-1.578045011,-0.569588602
1.73E+18,6.823860596,-0.229892358,-1.51302588,-0.562288702
1.73E+18,6.833857422,-0.247221813,-1.418904424,-0.564425111
1.73E+18,6.843853271,-0.238262862,-1.263064384,-0.560857475
1.73E+18,6.853850342,-0.226593688,-1.087508082,-0.555693626
1.73E+18,6.863846436,-0.225549012,-0.909911036,-0.558075607
1.73E+18,6.873843506,-0.226871267,-0.720811963,-0.565436304
1.73E+18,6.883839355,-0.201127931,-0.489796937,-0.578382015
1.73E+18,6.893836426,-0.166628018,-0.243978113,-0.593566835
1.73E+18,6.903832031,-0.099703737,0.022216355,-0.600568712
1.73E+18,6.913828369,0.030864125,0.339474201,-0.605826855
1.73E+18,6.923825195,0.224791616,0.69053334,-0.599565446
1.73E+18,6.933821289,0.42270574,0.965266347,-0.569053113
1.73E+18,6.943818359,0.609637916,1.111627102,-0.522880554
1.73E+18,6.953814453,0.693675518,1.102700949,-0.470050603
1.73E+18,6.963811279,0.601999879,0.896733403,-0.444429129
1.73E+18,6.973807373,0.381100237,0.587988317,-0.402498186
1.73E+18,6.983804199,0.297135204,0.222284883,-0.315227896
1.73E+18,6.993800537,0.337364137,-0.201912194,-0.204763696
1.73E+18,7.003796387,0.37557444,-0.620798886,-0.068927415
1.73E+18,7.013793457,0.365824878,-1.003665805,0.031948335
1.73E+18,7.023789307,0.298394024,-1.347273946,0.043681044
1.73E+18,7.033786377,0.23442781,-1.62388885,-0.046770558
1.73E+18,7.043782227,0.174102977,-1.847165465,-0.237720966
1.73E+18,7.053779541,0.146808252,-2.005085468,-0.446505606
1.73E+18,7.063775391,0.126684308,-2.083704472,-0.59605819
1.73E+18,7.073772461,0.125474706,-2.05384326,-0.637465298
1.73E+18,7.083768311,0.117299959,-1.921332479,-0.554379642
1.73E+18,7.093765137,0.103220358,-1.749976158,-0.378146023
1.73E+18,7.10376123,0.085425071,-1.549861789,-0.144038901
1.73E+18,7.113757568,0.079280093,-1.302571535,0.099150315
1.73E+18,7.123754395,0.068069026,-0.988149762,0.316810131
1.73E+18,7.133750244,0.051289245,-0.620444179,0.497188419
1.73E+18,7.143747314,0.032756388,-0.240882188,0.646104395
1.73E+18,7.153743408,0.018435773,0.135166273,0.758474112
1.73E+18,7.163740479,0.016315687,0.490605205,0.839283168
1.73E+18,7.173736328,0.02302845,0.787760437,0.88877511
1.73E+18,7.183733398,0.039246187,1.006644011,0.918754399
1.73E+18,7.193729248,0.0617752,1.134555936,0.945073903
1.73E+18,7.203725342,0.108061835,1.18608284,0.963981688
1.73E+18,7.213722168,0.144313857,1.137153387,0.943656981
1.73E+18,7.223718262,0.141852885,0.978503704,0.85758251
1.73E+18,7.233715332,0.082177304,0.704670548,0.706915498
1.73E+18,7.243711182,0.038060464,0.369607478,0.455217004
1.73E+18,7.253708008,0.013254981,0.131154433,-0.002615539
1.73E+18,7.263704346,-0.023304455,0.050309762,-0.478243411
1.73E+18,7.273701172,-0.044806018,0.052639231,-0.805778682
1.73E+18,7.283697266,-0.036708705,0.10923294,-0.915107727
1.73E+18,7.293694336,-0.015034037,0.167629674,-0.827014863
1.73E+18,7.303690186,0.03726586,0.233696163,-0.594668388
1.73E+18,7.313686035,0.065296963,0.374119073,-0.305358291
1.73E+18,7.32368335,0.067676254,0.601184309,-0.038935043
1.73E+18,7.333679199,0.073761575,0.879032969,0.179992244
1.73E+18,7.34367627,0.109180413,1.094800591,0.372083664
1.73E+18,7.353672363,0.121500731,1.211966872,0.545033574
1.73E+18,7.363669434,0.104094982,1.281581879,0.695564806
1.73E+18,7.373665039,0.077118225,1.326589942,0.811074376
1.73E+18,7.383662109,0.076390743,1.343460441,0.861343205
1.73E+18,7.393658203,0.093965471,1.336421609,0.837083936
1.73E+18,7.403654297,0.09560857,1.300674319,0.764126122
1.73E+18,7.413651367,0.073893152,1.254930496,0.661687076
1.73E+18,7.423647217,0.058163248,1.229075909,0.551736832
1.73E+18,7.433644287,0.064154029,1.232558489,0.451176971
1.73E+18,7.443640381,0.09897311,1.272368789,0.379146039
1.73E+18,7.453637207,0.163985133,1.340352416,0.35521701
1.73E+18,7.463633301,0.213692352,1.432742476,0.377495915
1.73E+18,7.473630371,0.245352283,1.518158793,0.418826044
1.73E+18,7.483625977,0.305881292,1.576464295,0.4400585
1.73E+18,7.493623291,0.378365099,1.57729578,0.422967374
1.73E+18,7.503619141,0.436157882,1.484434009,0.372097999
1.73E+18,7.513615234,0.448819071,1.336966515,0.310923606
1.73E+18,7.523612305,0.449229598,1.156246305,0.23938261
1.73E+18,7.533608154,0.431694001,0.917115271,0.148485988
1.73E+18,7.54360498,0.395002007,0.634620667,0.036928676
1.73E+18,7.553601318,0.372702032,0.388101995,-0.072510995
1.73E+18,7.563598145,0.362099439,0.207555458,-0.182691827
1.73E+18,7.573594238,0.325010121,0.100115009,-0.270222753
1.73E+18,7.583590088,0.245632201,0.115551665,-0.335463703
1.73E+18,7.593587158,0.224019051,0.390166193,-0.394809574
1.73E+18,7.603583008,0.212605342,0.802182198,-0.447202146
1.73E+18,7.613580322,0.206992999,1.09338367,-0.469585747
1.73E+18,7.623576172,0.220155641,1.201230764,-0.438335329
1.73E+18,7.633573486,0.214539304,1.083043694,-0.348743945
1.73E+18,7.643569336,0.207095206,0.830234289,-0.221821249
1.73E+18,7.653566162,0.192109868,0.595509946,-0.120802484
1.73E+18,7.663562256,0.172572523,0.470086277,-0.064133264
1.73E+18,7.673559326,0.172719806,0.506612599,-0.04239548
1.73E+18,7.683555176,0.183687523,0.685869515,-0.047689997
1.73E+18,7.693551514,0.196674168,0.886808455,-0.059930149
1.73E+18,7.70354834,0.186427027,0.954861641,-0.060241017
1.73E+18,7.713544189,0.1612591,0.886422932,-0.044770982
1.73E+18,7.72354126,0.147787333,0.771254539,-0.005026878
1.73E+18,7.733537354,0.140639141,0.717558026,0.035976749
1.73E+18,7.74353418,0.135850847,0.751173556,0.068050034
1.73E+18,7.753530518,0.122109205,0.863051116,0.087344371
1.73E+18,7.763527344,0.079545222,0.997450292,0.071156539
1.73E+18,7.773523193,0.027188808,1.0929389,0.025602633
1.73E+18,7.783519287,-0.024081856,1.153419137,-0.038516209
1.73E+18,7.793516113,-0.05104769,1.232344866,-0.102682143
1.73E+18,7.803512207,-0.02551247,1.23065865,-0.127625421
1.73E+18,7.813509277,0.024147494,1.083457232,-0.119257502
1.73E+18,7.823505127,0.077155776,0.828929245,-0.108131118
1.73E+18,7.833502197,0.057881951,0.672647238,-0.091453604
1.73E+18,7.843498291,0.056390408,0.454503894,-0.139916107
1.73E+18,7.853495117,0.012194985,0.351739168,-0.186466023
1.73E+18,7.863491455,-0.022720272,0.267893225,-0.216167539
1.73E+18,7.873488281,-0.041455347,0.159461021,-0.21882084
1.73E+18,7.883484131,-0.076509237,0.053396359,-0.198661402
1.73E+18,7.893480225,-0.108076751,-0.036466155,-0.156226054
1.73E+18,7.903477295,-0.125518262,-0.155439109,-0.124276079
1.73E+18,7.913473145,-0.15506044,-0.264294744,-0.092553832
1.73E+18,7.923470459,-0.185578406,-0.342326045,-0.059572563
1.73E+18,7.933466064,-0.211993232,-0.392008096,-0.051475223
1.73E+18,7.943463135,-0.245060518,-0.411791027,-0.044379193
1.73E+18,7.953459229,-0.273920387,-0.404694736,-0.020107143
1.73E+18,7.963455322,-0.286735058,-0.406218261,0.043857917
1.73E+18,7.973452148,-0.281942189,-0.428696692,0.149119884
1.73E+18,7.983448486,-0.262379646,-0.480956525,0.302120119
1.73E+18,7.993445068,-0.269640237,-0.552185178,0.489400804
1.73E+18,8.003441162,-0.309216678,-0.595945299,0.678097188
1.73E+18,8.013438232,-0.369749784,-0.615043104,0.835585594
1.73E+18,8.023434326,-0.414677918,-0.660657227,0.942716479
1.73E+18,8.033431396,-0.436309427,-0.704455554,1.006194472
1.73E+18,8.04342749,-0.45041579,-0.661388755,1.052807093
1.73E+18,8.053424072,-0.455532253,-0.481069833,1.097048044
1.73E+18,8.063420166,-0.445094794,-0.2695041,1.129441142
1.73E+18,8.07341626,-0.382251382,-0.09467157,1.163413525
1.73E+18,8.083413086,-0.270177782,0.020589633,1.222136378
1.73E+18,8.093409424,-0.16696988,0.070333757,1.299365163
1.73E+18,8.10340625,-0.065864578,0.058556229,1.351427436
1.73E+18,8.1134021,0.02154436,0.002239429,1.351122737
1.73E+18,8.12339917,0.11140471,-0.121891372,1.267961264
1.73E+18,8.133395264,0.198193654,-0.271698445,1.135062337
1.73E+18,8.14339209,0.219373345,-0.424792796,0.96713233
1.73E+18,8.153388428,0.241575584,-0.553101003,0.756309032
1.73E+18,8.163384033,0.280466735,-0.647863507,0.528300941
1.73E+18,8.173381104,0.35415265,-0.700695574,0.319529325
1.73E+18,8.183377197,0.409106165,-0.756858706,0.143424943
1.73E+18,8.193374268,0.424921095,-0.765503049,-0.004803399
1.73E+18,8.203370117,0.436543614,-0.70013696,-0.139251024
1.73E+18,8.213367432,0.456163913,-0.66018796,-0.272658378
1.73E+18,8.223363281,0.453522146,-0.721920371,-0.411594301
1.73E+18,8.233360352,0.435651809,-0.828981042,-0.527549088
1.73E+18,8.243356445,0.40308696,-0.934090376,-0.610348523
1.73E+18,8.253352539,0.349763572,-1.036656141,-0.664502859
1.73E+18,8.263349609,0.284023434,-1.115176797,-0.680322886
1.73E+18,8.273345703,0.227637663,-1.193740487,-0.667760193
1.73E+18,8.283342773,0.174747914,-1.264577508,-0.609908283
1.73E+18,8.293338623,0.116440393,-1.317972302,-0.529937804
1.73E+18,8.303335449,0.044860106,-1.32516551,-0.429302394
1.73E+18,8.313331543,-0.031025603,-1.297325134,-0.332145482
1.73E+18,8.323328613,-0.107052438,-1.257646561,-0.235959813
1.73E+18,8.333324463,-0.165617481,-1.197078228,-0.155088127
1.73E+18,8.343321777,-0.215376988,-1.084218502,-0.092118755
1.73E+18,8.353317383,-0.248922423,-0.935805082,-0.075579457
1.73E+18,8.363313477,-0.274823695,-0.769195557,-0.096123725
1.73E+18,8.373310547,-0.32400614,-0.622487843,-0.128179669
1.73E+18,8.383306641,-0.357506752,-0.508723915,-0.150256589
1.73E+18,8.393303467,-0.34374702,-0.411856204,-0.143388569
1.73E+18,8.403299561,-0.316612989,-0.367516905,-0.077693664
1.73E+18,8.413296387,-0.348376513,-0.355987281,0.023314178
1.73E+18,8.42329248,-0.390148729,-0.330956638,0.108168535
1.73E+18,8.433289551,-0.398159772,-0.243762851,0.146440566
1.73E+18,8.443285645,-0.393997729,-0.103859268,0.148896262
1.73E+18,8.45328125,-0.39676553,0.028679602,0.136952788
1.73E+18,8.463278564,-0.423967391,0.117656447,0.14204669
1.73E+18,8.473274414,-0.459839374,0.146548539,0.16988498
1.73E+18,8.483271729,-0.493724823,0.205523595,0.200208381
1.73E+18,8.493267578,-0.499803483,0.348616302,0.228948951
1.73E+18,8.503264648,-0.469300896,0.554263353,0.264975458
1.73E+18,8.513260254,-0.431588382,0.775930822,0.313768834
1.73E+18,8.523256592,-0.395765185,1.016832829,0.363427311
1.73E+18,8.533253418,-0.395096987,1.235486865,0.395236909
1.73E+18,8.543249512,-0.399962157,1.403248191,0.415095389
1.73E+18,8.553246582,-0.378537834,1.495795131,0.416036814
1.73E+18,8.563242676,-0.359968185,1.467378497,0.366092563
1.73E+18,8.573239502,-0.331269681,1.392117739,0.267344147
1.73E+18,8.583235596,-0.286151886,1.25753963,0.109361328
1.73E+18,8.593232422,-0.222282648,1.098735809,-0.107970193
1.73E+18,8.60322876,-0.165437281,0.887742043,-0.367855906
1.73E+18,8.613224609,-0.14638795,0.648453832,-0.600089669
1.73E+18,8.62322168,-0.158663884,0.392990768,-0.790990472
1.73E+18,8.633217529,-0.170961022,0.140795797,-0.937606812
1.73E+18,8.643214355,-0.177767888,-0.103418961,-1.057008386
1.73E+18,8.653210449,-0.185419157,-0.347140819,-1.183892369
1.73E+18,8.66320752,-0.186027154,-0.565947175,-1.333223462
1.73E+18,8.673203613,-0.201230615,-0.763668001,-1.506485343
1.73E+18,8.683200684,-0.230863243,-0.95098418,-1.676605582
1.73E+18,8.693196533,-0.256422937,-1.116389155,-1.815139174
1.73E+18,8.703193359,-0.293753922,-1.272226691,-1.882187366
1.73E+18,8.713189453,-0.33038196,-1.395798922,-1.813460588
1.73E+18,8.723185547,-0.339134336,-1.500714421,-1.629018784
1.73E+18,8.733182617,-0.347982943,-1.579807997,-1.372219801
1.73E+18,8.743178223,-0.348649353,-1.554152846,-1.082288861
1.73E+18,8.753175537,-0.346444786,-1.410877705,-0.777081072
1.73E+18,8.763171387,-0.325489789,-1.164373994,-0.504748762
1.73E+18,8.773168701,-0.294783026,-0.799048185,-0.292239457
1.73E+18,8.783164551,-0.270998448,-0.347729027,-0.136206582
1.73E+18,8.7931604,-0.240839735,0.138278976,-0.025427606
1.73E+18,8.803157471,-0.248703927,0.624724448,0.074545294
1.73E+18,8.813153564,-0.282988161,0.998164356,0.163225621
1.73E+18,8.823150391,-0.33066836,1.192818046,0.237281859
1.73E+18,8.833146729,-0.365045488,1.237412095,0.271407872
1.73E+18,8.843143555,-0.390091658,1.153994799,0.24082303
1.73E+18,8.853139404,-0.371534765,0.993233383,0.154829293
1.73E+18,8.863136475,-0.316846162,0.778039873,0.013394929
1.73E+18,8.873132568,-0.273439288,0.538324237,-0.175394967
1.73E+18,8.883128418,-0.27338174,0.235898763,-0.373412132
1.73E+18,8.893125732,-0.304296255,-0.128429398,-0.530109048
1.73E+18,8.903121582,-0.33647728,-0.541901886,-0.634337425
1.73E+18,8.913118408,-0.358264089,-0.980961025,-0.684848845
1.73E+18,8.923114502,-0.378799468,-1.412044525,-0.684083581
1.73E+18,8.933111328,-0.388453424,-1.768862605,-0.637435913
1.73E+18,8.943107422,-0.392872721,-1.995678782,-0.57560724
1.73E+18,8.953104492,-0.392896682,-2.096703291,-0.518167675
1.73E+18,8.963100586,-0.384590477,-2.090239525,-0.470767975
1.73E+18,8.973096436,-0.363273203,-1.990176082,-0.447072774
1.73E+18,8.983093506,-0.338828415,-1.797423482,-0.441204309
1.73E+18,8.9930896,-0.305818528,-1.529290318,-0.432637423
1.73E+18,9.00308667,-0.266001463,-1.211718678,-0.416582793
1.73E+18,9.01308252,-0.22149685,-0.865473747,-0.390177548
1.73E+18,9.02307959,-0.183158547,-0.519103527,-0.350028932
1.73E+18,9.033075439,-0.147305205,-0.209335819,-0.290595442
1.73E+18,9.04307251,-0.11166022,0.045404669,-0.243375272
1.73E+18,9.053068359,-0.05552477,0.25487721,-0.257184029
1.73E+18,9.063064697,0.047102693,0.374978006,-0.348548174
1.73E+18,9.073061523,0.191606879,0.297513843,-0.442385167
1.73E+18,9.083057373,0.276855707,-0.034043808,-0.395239294
1.73E+18,9.093054443,0.252703786,-0.47999838,-0.141910359
1.73E+18,9.103050537,0.207854837,-0.952439368,0.266769618
1.73E+18,9.113047607,0.166395813,-1.413956285,0.703202844
1.73E+18,9.123043701,0.099195912,-1.788060069,1.096142054
1.73E+18,9.133040527,0.054351475,-2.052671432,1.368491292
1.73E+18,9.143036377,0.041737985,-2.228966951,1.480049253
1.73E+18,9.153032471,0.042260766,-2.389345646,1.442307115
1.73E+18,9.163029541,0.046623021,-2.58744216,1.277399659
1.73E+18,9.173025391,0.012051996,-2.729999304,1.030532956
1.73E+18,9.183022705,-0.018410543,-2.732558012,0.771229804
1.73E+18,9.193018311,-0.034512814,-2.592261076,0.540844262
1.73E+18,9.203015381,-0.038573049,-2.338371754,0.354737282
1.73E+18,9.213011475,-0.044284198,-2.052107096,0.222658366
1.73E+18,9.223007568,-0.053662807,-1.780698299,0.082246579
1.73E+18,9.233004883,-0.062811829,-1.432802916,-0.304493934
1.73E+18,9.243000977,-0.035231266,-1.035983205,-0.844044507
1.73E+18,9.252998047,0.010229426,-0.734875679,-1.184648633
1.73E+18,9.262993896,0.011531128,-0.46088925,-1.300885797
1.73E+18,9.272990723,-0.026021574,-0.141227916,-1.283068657
1.73E+18,9.282986816,-0.101121828,0.218757853,-1.184052587
1.73E+18,9.292983887,-0.146107137,0.582112074,-1.076956153
1.73E+18,9.302979736,-0.151969835,0.978905022,-0.997153521
1.73E+18,9.312977051,-0.141041026,1.399302363,-0.946850955
1.73E+18,9.322972656,-0.089143865,1.883073449,-0.872961521
1.73E+18,9.33296875,0.008222104,2.346818924,-0.729807019
1.73E+18,9.34296582,0.166858152,2.852545738,-0.486705691
1.73E+18,9.352961914,0.383300155,3.15182662,-0.117154516
1.73E+18,9.362958984,0.609922111,3.246260643,0.305285841
1.73E+18,9.372954834,0.795655251,3.097808123,0.739280164
1.73E+18,9.38295166,0.930758774,2.719813108,1.18112731
1.73E+18,9.392947998,1.000237942,2.210137367,1.58805728
1.73E+18,9.402943848,0.932050884,1.758951902,1.894121647
1.73E+18,9.412940918,0.8007496,1.514357567,2.074737072
1.73E+18,9.422937012,0.645020902,1.468010306,2.120858908
1.73E+18,9.432933838,0.555027902,1.536523342,2.053826094
1.73E+18,9.442929688,0.568835258,1.521445274,1.919601321
1.73E+18,9.452927002,0.592179239,1.477881312,1.706122637
1.73E+18,9.462922852,0.601315856,1.485537171,1.427901983
1.73E+18,9.472919922,0.589027226,1.560784459,1.041147113
1.73E+18,9.482916016,0.593429565,1.66129005,0.577964485
1.73E+18,9.492911865,0.601192415,1.717797041,0.088174783
1.73E+18,9.502908691,0.603595793,1.699957013,-0.363201916
1.73E+18,9.512905029,0.587550759,1.700154424,-0.728621721
1.73E+18,9.522901855,0.559260964,1.613409281,-1.004713655
1.73E+18,9.532897949,0.496848971,1.361673474,-1.200211883
1.73E+18,9.54289502,0.421990901,0.999633312,-1.337194324
1.73E+18,9.552890869,0.349896461,0.640222192,-1.404608488
1.73E+18,9.562887939,0.277535558,0.326295108,-1.394891977
1.73E+18,9.572883789,0.209453985,0.071760833,-1.315644264
1.73E+18,9.582879883,0.152724206,-0.130246937,-1.173989654
1.73E+18,9.592876953,0.105038181,-0.273448318,-0.975495934
1.73E+18,9.602872803,0.089241654,-0.349470496,-0.745821655
1.73E+18,9.612869629,0.110894218,-0.369161636,-0.512477338
1.73E+18,9.622865967,0.153737843,-0.280952483,-0.282348514
1.73E+18,9.632862793,0.201020673,-0.049774397,-0.056820564
1.73E+18,9.642858887,0.23779878,0.300214171,0.18053548
1.73E+18,9.652855957,0.275855064,0.731164753,0.422531605
1.73E+18,9.662851807,0.319032699,1.189991474,0.648783147
1.73E+18,9.672847656,0.361328751,1.625656962,0.834742665
1.73E+18,9.682844971,0.388615757,1.959801674,0.973230779
1.73E+18,9.69284082,0.399141908,2.163384438,1.065241337
1.73E+18,9.702837891,0.40780887,2.241110325,1.131269574
1.73E+18,9.71283374,0.399494767,2.173995733,1.185425401
1.73E+18,9.722830811,0.365976691,1.951551795,1.234713912
1.73E+18,9.73282666,0.312514246,1.603909969,1.267941713
1.73E+18,9.742823975,0.275373638,1.181856751,1.272837996
1.73E+18,9.752819824,0.263078362,0.753094375,1.221906304
1.73E+18,9.762815918,0.257704139,0.332911313,1.102275848
1.73E+18,9.772812744,0.223069191,-0.055434007,0.910809755
1.73E+18,9.782808838,0.157413125,-0.416191012,0.66693598
1.73E+18,9.792805908,0.100797504,-0.78618288,0.410950303
1.73E+18,9.802802002,0.046590582,-1.148416281,0.168922961
1.73E+18,9.812798828,-0.022297669,-1.456395149,-0.047824521
1.73E+18,9.822795166,-0.09480048,-1.665255785,-0.231095731
1.73E+18,9.832790771,-0.15847747,-1.629817367,-0.320154518
1.73E+18,9.842787842,-0.228415832,-1.018966675,-0.204715133
1.73E+18,9.852783936,-0.331913978,0.028166931,0.159695044
1.73E+18,9.862780762,-0.414060235,0.601516306,0.498682231
1.73E+18,9.872776855,-0.363590389,0.633743465,0.697675228
1.73E+18,9.882773926,-0.22788386,0.366223127,0.72305727
1.73E+18,9.892769775,-0.091287673,0.141711742,0.606349826
1.73E+18,9.902766602,-0.034165129,0.106719263,0.40180701
1.73E+18,9.912762939,-0.037368115,0.167722955,0.15726091
1.73E+18,9.922759033,-0.07565286,0.251872838,-0.064892039
1.73E+18,9.932755859,-0.093995921,0.285526931,-0.226328328
1.73E+18,9.942751709,-0.078735143,0.22558701,-0.283491462
1.73E+18,9.952748779,-0.038520344,0.079928078,-0.25129652
1.73E+18,9.962744629,-0.007883079,-0.089790881,-0.174834296
1.73E+18,9.972741943,0.017545048,-0.26547426,-0.087798454
1.73E+18,9.982737793,0.044102304,-0.429947555,-0.004147692
1.73E+18,9.992733643,0.083992198,-0.541757166,0.077072866
1.73E+18,10.00273071,0.126965776,-0.538549304,0.164774835
1.73E+18,10.01272681,0.149651647,-0.433742732,0.249345645
1.73E+18,10.02272388,0.142487675,-0.269621074,0.333525151
1.73E+18,10.03271997,0.133902177,-0.073968761,0.400124699
1.73E+18,10.0427168,0.153223962,0.084952742,0.437383264
1.73E+18,10.05271313,0.15654093,0.159771323,0.458393723
1.73E+18,10.06270972,0.126499295,0.121824212,0.45415327
1.73E+18,10.07270581,0.096416503,-0.007923663,0.44026354
1.73E+18,10.0827019,0.081857502,-0.199017793,0.420234054
1.73E+18,10.09269897,0.075861663,-0.405348867,0.378536403
1.73E+18,10.10269482,0.060378026,-0.599521697,0.315330476
1.73E+18,10.11269214,0.042854693,-0.757384539,0.216337055
1.73E+18,10.12268774,0.029599529,-0.857108474,0.081839122
1.73E+18,10.13268481,0.025930492,-0.943063855,-0.061624035
1.73E+18,10.14268091,0.026974209,-1.049840808,-0.170252159
1.73E+18,10.15267773,0.037121918,-1.150005817,-0.21143502
1.73E+18,10.16267383,0.043207958,-1.23039484,-0.203981936
1.73E+18,10.17266992,0.048560116,-1.29542017,-0.186175779
1.73E+18,10.18266675,0.048591755,-1.300978899,-0.156790406
1.73E+18,10.19266284,0.045221526,-1.215453029,-0.119958095
1.73E+18,10.20265991,0.011727559,-1.038140416,-0.093248382
1.73E+18,10.21265601,-0.018576549,-0.806520462,-0.089199312
1.73E+18,10.22265308,-0.027007909,-0.599514663,-0.11738804
1.73E+18,10.23264819,-0.032776315,-0.425120741,-0.161825284
1.73E+18,10.24264404,-0.064692833,-0.296233475,-0.212924704
1.73E+18,10.25264136,-0.102241807,-0.221588805,-0.268966407
1.73E+18,10.26263721,-0.134788156,-0.228653356,-0.316227078
1.73E+18,10.27263452,-0.150449932,-0.305677056,-0.338593632
1.73E+18,10.28263013,-0.163298875,-0.403561056,-0.316457391
1.73E+18,10.2926272,-0.190109983,-0.474775046,-0.245346457
1.73E+18,10.30262329,-0.242486611,-0.493913233,-0.159839436
1.73E+18,10.31262012,-0.275684774,-0.467414528,-0.100440286
1.73E+18,10.32261621,-0.283600628,-0.38600117,-0.064273037
1.73E+18,10.3326123,-0.284211844,-0.256001621,-0.050047763
1.73E+18,10.34260913,-0.265508205,-0.046638876,-0.035631388
1.73E+18,10.35260522,-0.250151366,0.214736536,-0.003175444
1.73E+18,10.36260229,-0.242472291,0.411839962,0.043504138
1.73E+18,10.37259839,-0.228632107,0.481247813,0.116814569
1.73E+18,10.38259546,-0.223929211,0.425392628,0.211329699
1.73E+18,10.39259106,-0.231545582,0.315295666,0.292152107
1.73E+18,10.40258716,-0.256498516,0.245871603,0.303883284
1.73E+18,10.41258423,-0.262801141,0.240990281,0.246759266
1.73E+18,10.42258032,-0.250691444,0.250864655,0.166070864
1.73E+18,10.43257715,-0.238902435,0.257578492,0.111823887
1.73E+18,10.44257349,-0.228501201,0.267361343,0.090134837
1.73E+18,10.45257007,-0.219699726,0.247734651,0.091976941
1.73E+18,10.46256616,-0.210269377,0.200357974,0.099665068
1.73E+18,10.47256323,-0.198895276,0.131160259,0.10160891
1.73E+18,10.48255933,-0.183470994,0.081881024,0.067150719
1.73E+18,10.49255518,-0.174112648,0.065030135,-0.011553939
1.73E+18,10.50255249,-0.1880126,0.060799189,-0.134039298
1.73E+18,10.5125481,-0.207856342,0.033297788,-0.276465178
1.73E+18,10.52254517,-0.201710716,-0.005423521,-0.394444853
1.73E+18,10.53254126,-0.183186829,-0.023959123,-0.455655485
1.73E+18,10.54253833,-0.170227453,-0.016495537,-0.472133338
1.73E+18,10.55253418,-0.167284653,-0.023343589,-0.464966506
1.73E+18,10.56253027,-0.178485468,-0.077244826,-0.446674913
1.73E+18,10.5725271,-0.186797991,-0.15675883,-0.423845768
1.73E+18,10.58252319,-0.19373773,-0.198931813,-0.407161117
1.73E+18,10.59252026,-0.207908407,-0.189691707,-0.404919803
1.73E+18,10.60251636,-0.219225183,-0.162392437,-0.417242527
1.73E+18,10.61251343,-0.20861195,-0.125695154,-0.420448691
1.73E+18,10.62250928,-0.192304716,-0.072758049,-0.403669566
1.73E+18,10.6325061,-0.179340169,-0.029091526,-0.35661152
1.73E+18,10.64250244,-0.169346884,0.000680509,-0.299594402
1.73E+18,10.65249829,-0.157127231,0.023727238,-0.255105764
1.73E+18,10.66249536,-0.141998813,0.056036178,-0.222404465
1.73E+18,10.67249097,-0.124959379,0.089862056,-0.18812798
1.73E+18,10.68248804,-0.116760463,0.10184209,-0.151233241
1.73E+18,10.69248413,-0.104921915,0.106024317,-0.116922669
1.73E+18,10.7024812,-0.085065104,0.133841217,-0.101389445
1.73E+18,10.71247729,-0.075126454,0.187520415,-0.104038492
1.73E+18,10.72247339,-0.072257496,0.238813877,-0.122190326
1.73E+18,10.73247021,-0.072042845,0.279757053,-0.159906015
1.73E+18,10.74246631,-0.053426895,0.277700305,-0.20439899
1.73E+18,10.75246313,0.004152243,0.23503539,-0.23094137
1.73E+18,10.76245923,0.071147658,0.198761404,-0.225106359
1.73E+18,10.7724563,0.115570515,0.176667824,-0.189155295
1.73E+18,10.78245215,0.153614521,0.169860005,-0.122666724
1.73E+18,10.79244946,0.184374303,0.132784799,-0.039702334
1.73E+18,10.80244507,0.199406937,0.105027214,0.03623911
1.73E+18,10.81244116,0.18208015,0.050602324,0.057119623
1.73E+18,10.82243823,0.168714479,-0.008055789,0.00567325
1.73E+18,10.83243433,0.179791376,-0.111407481,-0.124580629
1.73E+18,10.8424314,0.223855242,-0.253899753,-0.312578708
1.73E+18,10.85242725,0.266133189,-0.398260385,-0.533645868
1.73E+18,10.86242407,0.272630334,-0.518769205,-0.738836646
1.73E+18,10.87242017,0.277001917,-0.662113011,-0.893289328
1.73E+18,10.88241626,0.287935138,-0.841637909,-0.979191422
1.73E+18,10.89241333,0.304925025,-1.04315269,-0.990307748
1.73E+18,10.90240894,0.302455544,-1.235463858,-0.948146999
1.73E+18,10.91240625,0.282151341,-1.367202997,-0.879419625
1.73E+18,10.9224021,0.253621131,-1.417834044,-0.809792042
1.73E+18,10.93239941,0.227697358,-1.427232623,-0.760595977
1.73E+18,10.94239526,0.186010048,-1.391028762,-0.730564833
1.73E+18,10.95239233,0.144514531,-1.313416004,-0.711518168
1.73E+18,10.96238818,0.103293933,-1.222144842,-0.6678316
1.73E+18,10.97238428,0.080503926,-1.132812023,-0.559084594
1.73E+18,10.9823811,0.082638979,-1.035784841,-0.375938028
1.73E+18,10.99237744,0.103722423,-0.938581288,-0.137495354
1.73E+18,11.00237427,0.099981576,-0.81483227,0.113436542
1.73E+18,11.01237036,0.095605999,-0.692026973,0.321596384
1.73E+18,11.02236719,0.099322893,-0.591156006,0.470600486
1.73E+18,11.03236328,0.092805333,-0.516040504,0.566934526
1.73E+18,11.04235913,0.063539445,-0.483684689,0.617369056
1.73E+18,11.0523562,0.017696589,-0.47962153,0.622951329
1.73E+18,11.06235229,-0.013513053,-0.483334333,0.598516047
1.73E+18,11.07234888,-0.025980908,-0.507252455,0.543726027
1.73E+18,11.08234521,-0.015064507,-0.529210687,0.479673982
1.73E+18,11.09234204,0.016991429,-0.534855485,0.42997086
1.73E+18,11.10233813,0.058573149,-0.511632979,0.391119808
1.73E+18,11.11233521,0.075241342,-0.452722281,0.358789563
1.73E+18,11.1223313,0.096861683,-0.372047454,0.33865425
1.73E+18,11.13232715,0.127726659,-0.274866581,0.336661667
1.73E+18,11.14232422,0.121231608,-0.092174947,0.274353296
1.73E+18,11.15232007,0.080961682,0.15449661,0.049825117
1.73E+18,11.16231738,0.050057724,0.305991292,-0.230545193
1.73E+18,11.17231323,-0.003950916,0.446568102,-0.478028208
1.73E+18,11.1823103,0.004199115,0.626901925,-0.585829973
1.73E+18,11.19230615,0.05292378,0.833642602,-0.51314193
1.73E+18,11.20230225,0.1168819,1.087024093,-0.317751735
1.73E+18,11.21229907,0.163500801,1.296143055,-0.071821041
1.73E+18,11.22229541,0.202341184,1.377168059,0.171241283
1.73E+18,11.23229248,0.227535754,1.341226816,0.378177434
1.73E+18,11.24228833,0.227039635,1.241228938,0.53010875
1.73E+18,11.25228516,0.180142432,1.110204339,0.617142975
1.73E+18,11.26228149,0.114507578,0.972147584,0.646782219
1.73E+18,11.27227734,0.044889882,0.851558328,0.620812118
1.73E+18,11.28227441,-0.022573911,0.841099739,0.521124661
1.73E+18,11.29227051,-0.078560211,0.894829273,0.393852443
1.73E+18,11.30226733,-0.095222197,0.947929978,0.245529369
1.73E+18,11.31226318,-0.086313389,0.989296615,0.100327171
1.73E+18,11.3222605,-0.07648313,1.065382123,-0.020060753
1.73E+18,11.33225635,-0.068792455,1.154128194,-0.099767037
1.73E+18,11.34225244,-0.059732758,1.20827508,-0.120414712
1.73E+18,11.35224951,-0.04977813,1.194473267,-0.074770525
1.73E+18,11.36224536,-0.041087043,1.110860229,0.012765437
1.73E+18,11.37224243,-0.03023972,0.982050836,0.118412234
1.73E+18,11.38223853,-0.024201963,0.869932652,0.200574338
1.73E+18,11.39223535,-0.030265182,0.79496491,0.259179056
1.73E+18,11.40223169,-0.020584371,0.739213824,0.297525495
1.73E+18,11.41222852,0.006097306,0.710291088,0.310359001
1.73E+18,11.42222437,0.0450009,0.688664973,0.312968373
1.73E+18,11.43222046,0.096776217,0.632533789,0.324774176
1.73E+18,11.44221729,0.136473358,0.528710306,0.352433741
1.73E+18,11.45221338,0.14774625,0.377182841,0.377119124
1.73E+18,11.46221045,0.13763769,0.203992411,0.376404881
1.73E+18,11.4722063,0.096905731,0.06472303,0.343442738
1.73E+18,11.48220313,0.041126836,-0.017986931,0.24835144
1.73E+18,11.49219946,0.01579698,0.040813804,0.113056205
1.73E+18,11.50219556,0.032041937,0.410956562,-0.035902079
1.73E+18,11.51219238,0.067910992,0.842428386,-0.151185259
1.73E+18,11.52218823,0.10042242,1.089063883,-0.181794763
1.73E+18,11.5321853,0.126775458,1.102591991,-0.122078694
1.73E+18,11.54218115,0.115764439,1.01583302,0.005694821
1.73E+18,11.55217847,0.118009754,0.949347973,0.124962889
1.73E+18,11.56217432,0.127175465,0.864356756,0.213990659
1.73E+18,11.57217041,0.104921825,0.749907374,0.258974642
1.73E+18,11.58216748,0.063330941,0.612387061,0.273681819
1.73E+18,11.59216333,0.042935919,0.550135374,0.263614804
1.73E+18,11.6021604,0.054306045,0.521645546,0.232936621
1.73E+18,11.61215649,0.065971754,0.523495913,0.183452159
1.73E+18,11.62215332,0.086927131,0.557664573,0.115689203
1.73E+18,11.63214966,0.1214156,0.610214591,0.051100887
1.73E+18,11.64214648,0.166994244,0.659841776,0.016084466
1.73E+18,11.65214233,0.221224993,0.727063954,0.023433726
1.73E+18,11.66213843,0.247585893,0.789662123,0.076751851
1.73E+18,11.6721355,0.254734606,0.796868622,0.152374178
1.73E+18,11.68213135,0.245129526,0.726618588,0.235662133
1.73E+18,11.69212866,0.240830913,0.624726295,0.295396835
1.73E+18,11.70212427,0.247289047,0.530830443,0.321005076
1.73E+18,11.71212134,0.23513411,0.405575603,0.318153888
1.73E+18,11.72211743,0.209490776,0.224181473,0.292699069
1.73E+18,11.73211353,0.184395015,0.004836071,0.258949071
1.73E+18,11.74211035,0.139810473,-0.201841801,0.222215459
1.73E+18,11.75210645,0.089720406,-0.373536319,0.163471714
1.73E+18,11.76210327,0.03907783,-0.505240142,0.076343849
1.73E+18,11.77209937,-0.011037802,-0.603625298,-0.027600929
1.73E+18,11.78209644,-0.048430592,-0.701412618,-0.118622221
1.73E+18,11.79209253,-0.068815224,-0.767280817,-0.16716899
1.73E+18,11.80208813,-0.081667677,-0.772678852,-0.177254796
1.73E+18,11.81208521,-0.08098378,-0.747421145,-0.175881937
1.73E+18,11.8220813,-0.064525843,-0.732708156,-0.161685944
1.73E+18,11.83207837,-0.031483464,-0.719636083,-0.122319624
1.73E+18,11.84207446,-0.007404766,-0.665130675,-0.060802236
1.73E+18,11.85207129,-0.016513577,-0.545813859,0.026711635
1.73E+18,11.86206763,-0.03534501,-0.394628376,0.113829665
1.73E+18,11.87206348,-0.038613774,-0.258846581,0.181903526
1.73E+18,11.8820603,-0.014333515,-0.171907082,0.212450355
1.73E+18,11.8920564,0.002085405,-0.106141932,0.22772038
1.73E+18,11.90205347,0.006311477,-0.074953221,0.24709554
1.73E+18,11.91204932,0.012625566,-0.115631141,0.27175346
1.73E+18,11.92204663,0.003203943,-0.262727886,0.282885909
1.73E+18,11.93204224,-0.01019016,-0.479458869,0.28722313
1.73E+18,11.94203931,-0.01772959,-0.650794506,0.280009359
1.73E+18,11.9520354,-0.034715764,-0.731373549,0.23867844
1.73E+18,11.96203149,-0.063353382,-0.737261236,0.151788116
1.73E+18,11.97202832,-0.088814266,-0.700493634,0.042186785
1.73E+18,11.98202441,-0.101685904,-0.64970845,-0.082863748
1.73E+18,11.99202124,-0.120844945,-0.607755959,-0.18412672
1.73E+18,12.00201733,-0.139760137,-0.575557113,-0.254493952
1.73E+18,12.0120144,-0.158056855,-0.55592829,-0.295436054
1.73E+18,12.0220105,-0.161039755,-0.565368593,-0.313792497
1.73E+18,12.0320061,-0.154948846,-0.577874005,-0.301045001
1.73E+18,12.04200342,-0.156094417,-0.564363539,-0.255151123
1.73E+18,12.05199927,-0.166175544,-0.521994531,-0.194231838
1.73E+18,12.06199658,-0.173884138,-0.480131298,-0.126359299
1.73E+18,12.07199243,-0.182218239,-0.445793301,-0.060580555
1.73E+18,12.0819895,-0.196683705,-0.398443282,-0.009656541
1.73E+18,12.09198535,-0.207489744,-0.323534966,0.020252088
1.73E+18,12.10198145,-0.201271027,-0.224872649,0.036511105
1.73E+18,12.11197827,-0.187869459,-0.126702935,0.046354681
1.73E+18,12.12197461,-0.179937378,-0.0133501,0.063003689
1.73E+18,12.13197144,-0.180514485,0.105377086,0.07939598
1.73E+18,12.14196753,-0.190544009,0.19661583,0.090385787
1.73E+18,12.1519646,-0.194856986,0.249363199,0.091531739
1.73E+18,12.16196045,-0.187038749,0.252288967,0.069172904
1.73E+18,12.1719563,-0.178970709,0.27346614,0.029701663
1.73E+18,12.18195361,-0.177410305,0.323655367,-0.021636361
1.73E+18,12.19194946,-0.177417487,0.372698545,-0.067893609
1.73E+18,12.20194629,-0.185247689,0.403702885,-0.070050687
1.73E+18,12.21194238,-0.199269757,0.410611928,-0.027285377
1.73E+18,12.22193921,-0.207896739,0.405873746,0.024040092
1.73E+18,12.23193506,-0.206205636,0.392305732,0.044613544
1.73E+18,12.24193115,-0.208557218,0.383002222,0.010458269
1.73E+18,12.25192822,-0.206385404,0.376857519,-0.061116051
1.73E+18,12.26192407,-0.196425661,0.362730086,-0.146800086
1.73E+18,12.2719209,-0.173369065,0.286027312,-0.216883034
1.73E+18,12.28191724,-0.151447237,0.149943143,-0.249195114
1.73E+18,12.29191406,-0.154732525,0.010862492,-0.258267164
1.73E+18,12.30191016,-0.168187901,-0.107264929,-0.254029155
1.73E+18,12.31190601,-0.173366159,-0.211515173,-0.259591967
1.73E+18,12.32190283,-0.166297793,-0.292051017,-0.286681354
1.73E+18,12.33189893,-0.17083396,-0.343810618,-0.324497968
1.73E+18,12.341896,-0.196417734,-0.339286655,-0.372964025
1.73E+18,12.35189209,-0.217461765,-0.305940926,-0.423787236
1.73E+18,12.36188892,-0.219422922,-0.305033594,-0.447425455
1.73E+18,12.37188501,-0.195304006,-0.315701425,-0.426769197
1.73E+18,12.3818811,-0.171428159,-0.291362494,-0.372233748
1.73E+18,12.39187793,-0.177027717,-0.226085752,-0.335311443
1.73E+18,12.40187402,-0.198650494,-0.12805672,-0.345358849
1.73E+18,12.41187109,-0.209232554,-0.040223006,-0.382602632
1.73E+18,12.4218667,-0.211431086,-0.04011507,-0.420479238
1.73E+18,12.43186401,-0.203721508,-0.080343455,-0.410437524
1.73E+18,12.44185986,-0.194927201,-0.078022584,-0.334075868
1.73E+18,12.45185596,-0.18269664,-0.036604308,-0.189980492
1.73E+18,12.46185303,-0.172848344,0.010237802,-0.014085681
1.73E+18,12.47184912,-0.164326757,0.039010324,0.148971945
1.73E+18,12.48184619,-0.168434381,0.094350263,0.240948394
1.73E+18,12.49184204,-0.196633801,0.191559896,0.233081684
1.73E+18,12.50183887,-0.22787419,0.30940789,0.134101108
1.73E+18,12.51183521,-0.228904024,0.416854471,-0.018871389
1.73E+18,12.52183105,-0.200969398,0.450080782,-0.164820343
1.73E+18,12.53182813,-0.16611208,0.402165174,-0.241791025
1.73E+18,12.54182373,-0.137693927,0.282592326,-0.240811929
1.73E+18,12.55182104,-0.113404833,0.119463854,-0.166015983
1.73E+18,12.56181689,-0.101234339,-0.087644555,-0.063027129
1.73E+18,12.57181421,-0.099713944,-0.308708489,0.020386808
1.73E+18,12.58181006,-0.096813671,-0.508993983,0.037283078
1.73E+18,12.59180591,-0.098473087,-0.626656175,-0.014917542
1.73E+18,12.60180298,-0.080896996,-0.661469221,-0.108016476
1.73E+18,12.61179907,-0.039600421,-0.641318142,-0.201951489
1.73E+18,12.6217959,-0.0134959,-0.570071042,-0.249525607
1.73E+18,12.63179224,0.007219233,-0.458839893,-0.253589839
1.73E+18,12.64178906,0.043877371,-0.378304005,-0.220365092
1.73E+18,12.65178491,0.087587565,-0.349744797,-0.197641402
1.73E+18,12.66178101,0.118247129,-0.342474878,-0.196840093
1.73E+18,12.67177808,0.114209242,-0.32328707,-0.267349958
1.73E+18,12.68177393,0.077136703,-0.311696917,-0.421482027
1.73E+18,12.69177124,0.033144213,-0.355409235,-0.608875871
1.73E+18,12.70176709,0.029285258,-0.426068544,-0.708709419
1.73E+18,12.71176392,0.05676429,-0.513182938,-0.648159027
1.73E+18,12.72176001,0.072974585,-0.591452897,-0.446150601
1.73E+18,12.73175684,0.066225342,-0.658244967,-0.182393536
1.73E+18,12.74175293,0.052279681,-0.687140405,0.049696635
1.73E+18,12.75174927,0.059140783,-0.620620728,0.174814343
1.73E+18,12.76174609,0.079309277,-0.470867962,0.194769844
1.73E+18,12.77174194,0.082797751,-0.279285491,0.139487147
1.73E+18,12.78173901,0.074801266,-0.087866262,0.081852861
1.73E+18,12.79173511,0.103038229,0.070588894,0.088724881
1.73E+18,12.80173218,0.135216638,0.201533601,0.179848745
1.73E+18,12.81172803,0.151845679,0.242866129,0.321885228
1.73E+18,12.82172388,0.158424601,0.155091271,0.472114086
1.73E+18,12.83172095,0.156040803,0.009138055,0.585164189
1.73E+18,12.84171704,0.112098426,-0.081710905,0.619092286
1.73E+18,12.85171387,0.023391725,-0.077855982,0.523223042
1.73E+18,12.86171021,-0.046238098,-0.026195239,0.312155992
1.73E+18,12.87170605,-0.055662759,0.02314195,0.067518815
1.73E+18,12.88170288,-0.049016234,0.08114215,-0.126371816
1.73E+18,12.89169897,-0.039274391,0.138582259,-0.234460205
1.73E+18,12.90169604,-0.022913678,0.151381403,-0.256262004
1.73E+18,12.91169189,-0.015584925,0.078346878,-0.232939616
1.73E+18,12.92168921,-0.00482756,-0.054676559,-0.1818517
1.73E+18,12.93168481,0.009347913,-0.164531946,-0.133428514
1.73E+18,12.94168213,0.00609877,-0.188437209,-0.135828629
1.73E+18,12.95167798,-0.00118178,-0.163320944,-0.167087212
1.73E+18,12.96167407,0.00438201,-0.117141649,-0.182696074
1.73E+18,12.9716709,0.031275142,-0.062518887,-0.143038675
1.73E+18,12.98166724,0.075696245,-0.04422747,-0.047517058
1.73E+18,12.99166382,0.118388847,-0.047505554,0.081297114
1.73E+18,13.00165991,0.142126471,-0.055933569,0.178261474
1.73E+18,13.01165601,0.131205112,-0.042917635,0.201394752
1.73E+18,13.02165308,0.099731974,-0.037478819,0.135179669
1.73E+18,13.03164893,0.064267457,-0.052249245,-0.010412695
1.73E+18,13.04164624,0.033764511,-0.049178284,-0.18499209
1.73E+18,13.05164185,0.029269891,0.113044448,-0.317006856
1.73E+18,13.06163916,0.104181603,0.384431511,-0.351228774
1.73E+18,13.07163501,0.159696519,0.699802279,-0.278842986
1.73E+18,13.0816311,0.171767622,0.877688766,-0.110067852
1.73E+18,13.09162817,0.193953365,0.858724415,0.095813945
1.73E+18,13.10162402,0.208065167,0.690206587,0.280368775
1.73E+18,13.11162085,0.206264868,0.548718989,0.402956992
1.73E+18,13.12161719,0.185652032,0.539715409,0.430465192
1.73E+18,13.13161401,0.148217037,0.677760363,0.382359177
1.73E+18,13.14161011,0.128725752,0.829114497,0.28644827
1.73E+18,13.1516062,0.132822216,0.870725095,0.214984223
1.73E+18,13.16160303,0.141063318,0.81499505,0.172590226
1.73E+18,13.17159888,0.116577685,0.70406878,0.157902896
1.73E+18,13.18159595,0.095786743,0.567260802,0.156086996
1.73E+18,13.19159204,0.103407905,0.455294013,0.149167567
1.73E+18,13.20158887,0.116831563,0.408817977,0.118276425
1.73E+18,13.21158521,0.113330565,0.416934758,0.069118731
1.73E+18,13.22158105,0.104993746,0.432873338,0.009381671
1.73E+18,13.23157813,0.111006372,0.48447901,-0.039727286
1.73E+18,13.24157422,0.120332249,0.585830212,-0.070850767
1.73E+18,13.25157129,0.14152728,0.711874962,-0.072673164
1.73E+18,13.26156714,0.150686413,0.824717045,-0.048877906
1.73E+18,13.27156421,0.156837508,0.907033741,-0.006884916
1.73E+18,13.28156006,0.15452446,0.916867018,0.040462781
1.73E+18,13.29155615,0.121803269,0.855837226,0.078479938
1.73E+18,13.30155298,0.077255033,0.735855043,0.101774067
1.73E+18,13.31154907,0.032742698,0.567841768,0.127289817
1.73E+18,13.32154614,-0.007526963,0.396327794,0.144811288
1.73E+18,13.33154199,-0.046641875,0.258019716,0.146762848
1.73E+18,13.34153906,-0.078157492,0.127180994,0.125403881
1.73E+18,13.35153516,-0.089454889,0.0280648,0.085159801
1.73E+18,13.36153101,-0.063975975,-0.032900743,0.064588659
1.73E+18,13.37152832,-0.032683302,-0.075671375,0.099930935
1.73E+18,13.38152393,-0.014862993,-0.108961128,0.168787122
1.73E+18,13.391521,0.013779838,-0.161193177,0.236457512
1.73E+18,13.40151709,0.025951246,-0.218797371,0.284700781
1.73E+18,13.41151416,0.007523237,-0.263532609,0.323854059
1.73E+18,13.42151001,-0.024838049,-0.24221082,0.347891927
1.73E+18,13.43150635,-0.057423688,-0.134735763,0.354323983
1.73E+18,13.44150293,-0.057948202,-0.068213828,0.345238596
1.73E+18,13.45149902,-0.0380725,-0.038454868,0.372032672
1.73E+18,13.46149609,-0.030692007,0.007428473,0.439814925
1.73E+18,13.47149219,-0.033681404,0.074163295,0.519839764
1.73E+18,13.48148926,-0.034775782,0.167666957,0.557432294
1.73E+18,13.49148535,-0.032133929,0.225492701,0.549469709
1.73E+18,13.50148096,-0.007042377,0.219617456,0.500773251
1.73E+18,13.51147803,0.040195175,0.134299099,0.447858632
1.73E+18,13.52147412,0.079086155,0.04780519,0.419671834
1.73E+18,13.53147119,0.105516158,0.018068334,0.416064054
1.73E+18,13.54146704,0.137691915,0.031879235,0.43891573
1.73E+18,13.55146411,0.172511414,0.05499867,0.47526601
1.73E+18,13.56145996,0.185955107,0.064457163,0.493553668
1.73E+18,13.57145605,0.179784834,0.064493112,0.470267534
1.73E+18,13.58145313,0.18695648,0.052721903,0.39761734
1.73E+18,13.59144922,0.204799116,0.06343846,0.279190034
1.73E+18,13.60144629,0.18905358,0.079012945,0.129578203
1.73E+18,13.61144214,0.149543986,0.027687173,-0.048191529
1.73E+18,13.62143896,0.116195023,-0.065848947,-0.209417462
1.73E+18,13.63143506,0.087959655,-0.208359227,-0.337892085
1.73E+18,13.64143115,0.050582483,-0.346515179,-0.408096075
1.73E+18,13.65142798,0.00437025,-0.464242876,-0.423069179
1.73E+18,13.66142407,-0.028948134,-0.550116777,-0.387828529
1.73E+18,13.6714209,-0.056277759,-0.65775913,-0.325780094
1.73E+18,13.68141699,-0.069867253,-0.769422054,-0.239133522
1.73E+18,13.69141406,-0.057755463,-0.837030649,-0.13753739
1.73E+18,13.70141016,-0.022842154,-0.859839201,-0.038507745
1.73E+18,13.71140625,-0.028608164,-0.808388293,0.047581866
1.73E+18,13.72140332,-0.055733562,-0.708170116,0.099987671
1.73E+18,13.73139893,-0.083193682,-0.619710803,0.110397428
1.73E+18,13.741396,-0.102706447,-0.514375746,0.107339926
1.73E+18,13.75139209,-0.120460942,-0.388278276,0.097461998
1.73E+18,13.76138916,-0.140624717,-0.255264103,0.075315759
1.73E+18,13.77138501,-0.148020312,-0.125752181,0.054876797
1.73E+18,13.7813811,-0.142915472,-0.006038148,0.029927615
1.73E+18,13.79137793,-0.147918746,0.059424218,0.002121018
1.73E+18,13.80137402,-0.180907816,0.075428113,-0.026667822
1.73E+18,13.81137109,-0.214237273,0.061881419,-0.060668666
1.73E+18,13.82136719,-0.218518257,-0.022352871,-0.11853496
1.73E+18,13.83136426,-0.20687519,-0.132799476,-0.167578682
1.73E+18,13.84136011,-0.189170077,-0.241017178,-0.185555249
1.73E+18,13.85135596,-0.186015829,-0.323447585,-0.170612261
1.73E+18,13.86135327,-0.196641177,-0.372999609,-0.14977701
1.73E+18,13.87134912,-0.209507972,-0.388498396,-0.133236378
1.73E+18,13.88134619,-0.173844039,-0.297917992,-0.131068021
1.73E+18,13.89134204,-0.13245292,-0.12348175,-0.120470241
1.73E+18,13.90133813,-0.11632704,0.049900234,-0.08819893
1.73E+18,13.91133496,-0.11399731,0.125372618,-0.032460839
1.73E+18,13.9213313,-0.095029972,0.017333528,0.05150478
1.73E+18,13.93132813,-0.069295049,-0.18430905,0.146586552
1.73E+18,13.94132397,-0.029282462,-0.353635013,0.258478165
1.73E+18,13.95132104,-0.00811113,-0.429562271,0.389720619
1.73E+18,13.96131714,-0.011312833,-0.39910385,0.497294813
1.73E+18,13.97131299,-0.020503135,-0.263523906,0.566115439
1.73E+18,13.9813103,-0.010109933,-0.025617784,0.581587136
1.73E+18,13.99130615,-0.001656262,0.260405183,0.543642163
1.73E+18,14.00130322,0.00579594,0.543818295,0.472288638
1.73E+18,14.01129907,0.002418253,0.726005971,0.368490607
1.73E+18,14.02129614,0.008164022,0.804284513,0.221274793
1.73E+18,14.03129199,-0.003596144,0.746489286,0.018269826
1.73E+18,14.04128833,-0.004374355,0.548380494,-0.230608046
1.73E+18,14.05128516,0.012351362,0.304614127,-0.470546335
1.73E+18,14.06128101,0.011981815,0.06234676,-0.67295444
1.73E+18,14.07127808,-0.029717695,-0.165069625,-0.866921484
1.73E+18,14.08127417,-0.09887068,-0.37811923,-1.004407763
1.73E+18,14.09127124,-0.157273278,-0.596176744,-1.05138135
1.73E+18,14.10126733,-0.182776004,-0.790064096,-1.012620449
1.73E+18,14.11126294,-0.181327775,-0.895666659,-0.902420342
1.73E+18,14.12126001,-0.150099754,-0.884546518,-0.724934816
1.73E+18,14.1312561,-0.102338374,-0.770306766,-0.504930496
1.73E+18,14.14125293,-0.062830858,-0.558186948,-0.262032986
1.73E+18,14.15124927,-0.050062861,-0.25147146,-0.042436738
1.73E+18,14.16124609,-0.017179562,0.093069188,0.12584357
1.73E+18,14.17124194,0.015648693,0.450300276,0.255599946
1.73E+18,14.18123828,0.069419295,0.778302848,0.359892994
1.73E+18,14.19123511,0.123519011,1.056589603,0.458825439
1.73E+18,14.2012312,0.147937968,1.245603085,0.559325576
1.73E+18,14.21122827,0.148681,1.325347662,0.64541173
1.73E+18,14.22122412,0.136453807,1.280965209,0.686962008
1.73E+18,14.23121997,0.109124973,1.129253626,0.655029655
1.73E+18,14.2412168,0.054316197,0.919748783,0.534679532
1.73E+18,14.25121289,-0.004470158,0.698474407,0.36443457
1.73E+18,14.26120996,-0.028101321,0.495444179,0.178206086
1.73E+18,14.27120605,-0.00946958,0.298707694,0.011211244
1.73E+18,14.28120313,0.005425991,0.097865567,-0.124572501
1.73E+18,14.29119897,-0.008332431,-0.103375137,-0.208510816
1.73E+18,14.30119507,-0.012453702,-0.281773955,-0.272120267
1.73E+18,14.31119214,-0.003438369,-0.392022699,-0.332769752
1.73E+18,14.32118799,0.020904463,-0.424850821,-0.362834156
1.73E+18,14.33118506,0.043353844,-0.403068542,-0.35318926
1.73E+18,14.34118091,0.038010981,-0.366241395,-0.309332967
1.73E+18,14.35117798,0.014900603,-0.329806954,-0.25016737
1.73E+18,14.36117383,-0.013450235,-0.27421236,-0.210782513
1.73E+18,14.37117017,-0.03215548,-0.17783922,-0.240692481
1.73E+18,14.38116699,-0.032399237,-0.080328062,-0.313652754
1.73E+18,14.39116284,-0.017216025,-0.003969376,-0.365909308
1.73E+18,14.40115991,-0.007748423,0.073326305,-0.376896173
1.73E+18,14.41115601,-0.001709172,0.144409522,-0.367056876
1.73E+18,14.42115283,-0.004533987,0.197397381,-0.371027648
1.73E+18,14.43114917,0.007251033,0.216327652,-0.393285543
1.73E+18,14.44114478,0.02631533,0.195900813,-0.434938997
1.73E+18,14.45114185,0.037867054,0.110067666,-0.487347364
1.73E+18,14.46113794,0.033718795,-0.047578104,-0.525900066
1.73E+18,14.47113501,0.010292565,-0.268394083,-0.56373477
1.73E+18,14.48113086,-0.034199104,-0.547955573,-0.619514287
1.73E+18,14.4911272,-0.067808464,-0.864087701,-0.673318923
1.73E+18,14.50112402,-0.082909197,-1.194004297,-0.717190027
1.73E+18,14.51111987,-0.113555253,-1.479728222,-0.7221331
1.73E+18,14.52111694,-0.160977632,-1.712315679,-0.672662199
1.73E+18,14.53111304,-0.206466556,-1.87689662,-0.576757014
1.73E+18,14.54111011,-0.219519868,-1.976504326,-0.450057745
1.73E+18,14.5511062,-0.209869117,-1.971809983,-0.299950808
1.73E+18,14.56110181,-0.184403166,-1.863920689,-0.148526728
1.73E+18,14.57109912,-0.160150021,-1.679951429,-0.007862829
1.73E+18,14.58109497,-0.155875191,-1.409770489,0.095344752
1.73E+18,14.59109204,-0.170184359,-1.087335944,0.145890757
1.73E+18,14.60108813,-0.182600722,-0.766419888,0.155911013
1.73E+18,14.61108398,-0.17679131,-0.454885155,0.173059106
1.73E+18,14.62108081,-0.143599778,-0.147409782,0.232038617
1.73E+18,14.63107715,-0.079137959,0.151931375,0.346461892
1.73E+18,14.64107397,0.029487025,0.41655764,0.492791265
1.73E+18,14.65107007,0.13869074,0.679244161,0.600407481
1.73E+18,14.66106714,0.202106968,1.009925604,0.630022764
1.73E+18,14.67106299,0.166868821,1.367382646,0.607437849
1.73E+18,14.68105884,0.07791362,1.616434336,0.568814397
1.73E+18,14.69105591,0.019764826,1.672971129,0.532952309
1.73E+18,14.701052,0.035177656,1.562466145,0.489846289
1.73E+18,14.71104883,0.07442572,1.393564224,0.440562338
1.73E+18,14.72104517,0.112551734,1.245228171,0.410146385
1.73E+18,14.73104175,0.178772569,1.134743214,0.41339758
1.73E+18,14.74103784,0.281542331,1.064248085,0.434772015
1.73E+18,14.75103418,0.319322199,1.040357351,0.460432112
1.73E+18,14.76103101,0.289085507,1.018246055,0.454267204
1.73E+18,14.7710271,0.254554957,0.977233052,0.411765546
1.73E+18,14.78102417,0.253074586,0.905251086,0.3364411
1.73E+18,14.79101978,0.261211872,0.835834742,0.239405632
1.73E+18,14.80101587,0.24211973,0.810453892,0.12325719
1.73E+18,14.81101294,0.223672271,0.852150738,-0.002583034
1.73E+18,14.82100903,0.19949995,0.862815678,-0.146445498
1.73E+18,14.8310061,0.154931679,0.75818646,-0.263997972
1.73E+18,14.84100195,0.115869693,0.54880619,-0.349871844
1.73E+18,14.85099878,0.109082095,0.322070271,-0.406052828
1.73E+18,14.86099512,0.108425215,0.190415829,-0.41196537
1.73E+18,14.87099097,0.07205496,0.156329766,-0.397875398
1.73E+18,14.88098804,0.043630429,0.147269204,-0.382618994
1.73E+18,14.89098389,0.055458322,0.1272614,-0.337376684
1.73E+18,14.90098096,0.084971242,0.130627126,-0.258626878
1.73E+18,14.91097681,0.100429028,0.170488253,-0.179342955
1.73E+18,14.9209729,0.106884725,0.257804453,-0.135052755
1.73E+18,14.93096997,0.106628798,0.386425555,-0.13484104
1.73E+18,14.94096606,0.078682683,0.515816867,-0.164568961
1.73E+18,14.95096289,0.041135844,0.63902992,-0.196937829
1.73E+18,14.96095898,0.012318518,0.674431682,-0.232841462
1.73E+18,14.97095581,0.000596348,0.604929328,-0.245592669
1.73E+18,14.98095215,-0.006976688,0.493029088,-0.237346202
1.73E+18,14.990948,-0.029297706,0.392467856,-0.222378179
1.73E+18,15.00094507,-0.054939263,0.283753335,-0.173545569
1.73E+18,15.01094092,-0.054829538,0.142271847,-0.081383415
1.73E+18,15.02093799,-0.061531916,0.01742045,0.026903914
1.73E+18,15.03093384,-0.10331399,-0.048625145,0.086633287
1.73E+18,15.04093115,-0.148071423,-0.086002842,0.073844209
1.73E+18,15.050927,-0.189562678,-0.137555242,0.032547373
1.73E+18,15.06092285,-0.207573175,-0.224999651,0.013355009
1.73E+18,15.07091992,-0.196657673,-0.293266058,0.040073704
1.73E+18,15.08091602,-0.170074433,-0.340234488,0.122271217
1.73E+18,15.09091309,-0.092117578,-0.355415046,0.262616605
1.73E+18,15.10090918,0.007470824,-0.359730363,0.448958099
1.73E+18,15.11090479,0.078157775,-0.349437237,0.640601575
1.73E+18,15.12090186,0.080867134,-0.337756932,0.761551917
1.73E+18,15.13089795,0.042398568,-0.355040044,0.773729503
1.73E+18,15.14089502,0.01466585,-0.389269114,0.708641469
1.73E+18,15.15089087,0.007321651,-0.437865943,0.590486586
1.73E+18,15.16088818,0.010087883,-0.514452338,0.457986623
1.73E+18,15.17088379,0.025512379,-0.622473598,0.357784122
1.73E+18,15.18087988,0.050373405,-0.807848573,0.289800107
1.73E+18,15.19087695,0.04479941,-0.990650892,0.24400492
1.73E+18,15.20087305,0.002417173,-0.964437068,0.238122955
1.73E+18,15.21087012,-0.024156647,-0.630739808,0.291166723
1.73E+18,15.22086621,-0.036624797,-0.041961532,0.4158566
1.73E+18,15.23086182,-0.03313712,0.46162492,0.513975978
1.73E+18,15.24085889,0.018363332,0.579886734,0.478519112
1.73E+18,15.25085474,0.090711035,0.382857293,0.299377859
1.73E+18,15.26085181,0.084602557,0.259294182,0.079354495
1.73E+18,15.2708479,0.051096,0.271163613,-0.094475619
1.73E+18,15.28084497,0.005166247,0.272699505,-0.201810911
1.73E+18,15.29084082,-0.019187296,0.150004476,-0.255049109
1.73E+18,15.30083691,-0.005075314,-0.032511342,-0.294327945
1.73E+18,15.31083398,0.001598302,-0.181945294,-0.384853065
1.73E+18,15.32083008,-0.025121776,-0.225137681,-0.534562886
1.73E+18,15.3308269,-0.070495382,-0.184494376,-0.692888081
1.73E+18,15.34082275,-0.116968483,-0.152210578,-0.816089094
1.73E+18,15.35081885,-0.151121929,-0.181999624,-0.859353781
1.73E+18,15.36081567,-0.153196678,-0.274511665,-0.803812027
1.73E+18,15.37081177,-0.120199859,-0.425354421,-0.655913651
1.73E+18,15.38080884,-0.050463706,-0.600092828,-0.424319506
1.73E+18,15.39080469,-0.018103367,-0.699428499,-0.178167552
1.73E+18,15.40080176,-0.028891444,-0.72381562,-0.013814602
1.73E+18,15.41079785,-0.028660016,-0.686986744,0.053465635
1.73E+18,15.42079395,-0.025173983,-0.630108297,0.021671314
1.73E+18,15.43079102,-0.039087135,-0.576029062,-0.091114886
1.73E+18,15.44078711,-0.051791199,-0.522991776,-0.219168663
1.73E+18,15.45078369,-0.063892327,-0.511285305,-0.3249228
1.73E+18,15.46077979,-0.063324325,-0.598911583,-0.414432853
1.73E+18,15.47077588,-0.05814074,-0.736924887,-0.429586232
1.73E+18,15.48077271,-0.065918595,-0.874787271,-0.380525351
1.73E+18,15.49076904,-0.096287951,-0.969891906,-0.313069612
1.73E+18,15.50076587,-0.149393931,-1.016140461,-0.277542293
1.73E+18,15.51076172,-0.195661828,-1.061258912,-0.299985021
1.73E+18,15.52075879,-0.19896999,-1.091436863,-0.338153124
1.73E+18,15.53075488,-0.177399457,-1.080215812,-0.340800583
1.73E+18,15.54075098,-0.171979412,-1.031410933,-0.287219465
1.73E+18,15.55074805,-0.167767093,-0.974770188,-0.196469069
1.73E+18,15.56074365,-0.128743917,-0.880878866,-0.115365624
1.73E+18,15.57074072,-0.057484116,-0.60205096,-0.072531871
1.73E+18,15.58073682,-0.016013348,-0.081380509,-0.07456857
1.73E+18,15.59073291,-0.006999346,0.482779294,-0.108960897
1.73E+18,15.60072974,-0.013345969,0.898417532,-0.1225328
1.73E+18,15.61072583,-0.021870214,1.047800899,-0.072878696
1.73E+18,15.62072266,-0.05473597,0.865938306,0.031360559
1.73E+18,15.63071875,-0.064025342,0.417348295,0.163181439
1.73E+18,15.64071582,-0.063543111,-0.097187825,0.30016461
1.73E+18,15.65071191,-0.07027185,-0.495424658,0.381314576
1.73E+18,15.66070776,-0.094225533,-0.664470732,0.364936054
1.73E+18,15.67070508,-0.121352762,-0.639975727,0.253428429
1.73E+18,15.68070068,-0.142031774,-0.593890131,0.084014781
1.73E+18,15.690698,-0.155780345,-0.634625852,-0.08734978
1.73E+18,15.70069385,-0.140706211,-0.730531275,-0.226302981
1.73E+18,15.71068994,-0.118638195,-0.771846473,-0.304327458
1.73E+18,15.72068701,-0.102436393,-0.736137748,-0.299286395
1.73E+18,15.73068286,-0.08600948,-0.657034934,-0.216501772
1.73E+18,15.74067969,-0.064438894,-0.588026226,-0.070030369
1.73E+18,15.75067603,-0.055933557,-0.539546311,0.096733846
1.73E+18,15.76067285,-0.088482007,-0.470009387,0.231363177
1.73E+18,15.77066895,-0.156649083,-0.330539107,0.26452139
1.73E+18,15.78066479,-0.196780726,-0.152800396,0.195004344
1.73E+18,15.79066187,-0.180981517,-0.023776636,0.076837495
1.73E+18,15.80065771,-0.159964412,0.045688044,-0.025117984
1.73E+18,15.81065503,-0.153466836,0.077360488,-0.062523149
1.73E+18,15.82065088,-0.152237311,0.075401075,-0.054087549
1.73E+18,15.83064673,-0.14756985,0.006973014,-0.018417435
1.73E+18,15.8406438,-0.133695319,-0.124047197,0.023650598
1.73E+18,15.85063989,-0.121595256,-0.250801682,0.030685071
1.73E+18,15.86063672,-0.123665273,-0.316693693,-0.02002744
1.73E+18,15.87063306,-0.128616631,-0.317592263,-0.126493171
1.73E+18,15.88062891,-0.114064604,-0.294745356,-0.240541786
1.73E+18,15.89062598,-0.094413675,-0.290658206,-0.296004236
1.73E+18,15.90062183,-0.080026105,-0.306678176,-0.291577637
1.73E+18,15.9106189,-0.06257654,-0.351661891,-0.240112603
1.73E+18,15.92061475,-0.041041683,-0.414696783,-0.172753528
1.73E+18,15.93061182,-0.036644805,-0.465550661,-0.103738502
1.73E+18,15.94060791,-0.047080755,-0.455836952,-0.054002982
1.73E+18,15.95060376,-0.05669583,-0.396214634,-0.054108445
1.73E+18,15.96060083,-0.054795954,-0.328232467,-0.093899615
1.73E+18,15.97059692,-0.0510148,-0.262791693,-0.154485732
1.73E+18,15.98059399,-0.039630223,-0.175094724,-0.194250077
1.73E+18,15.99059009,-0.016399469,-0.087271124,-0.181485012
1.73E+18,16.00058569,0.010444725,-0.015936671,-0.124933608
1.73E+18,16.01058276,0.030284476,0.029996997,-0.047854524
1.73E+18,16.02057886,0.037668977,0.067941107,0.044878684
1.73E+18,16.03057568,0.044341527,0.153399274,0.131412521
1.73E+18,16.04057202,0.042166539,0.334590256,0.196950555
1.73E+18,16.05056885,0.063325085,0.554982543,0.234007373
1.73E+18,16.0605647,0.089711629,0.763665557,0.246696338
1.73E+18,16.07056104,0.106948145,0.934216797,0.250576049
1.73E+18,16.08055786,0.114904553,1.058493614,0.245849237
1.73E+18,16.09055396,0.121596009,1.135394692,0.229731515
1.73E+18,16.10055103,0.131750226,1.120816827,0.22252658
1.73E+18,16.11054663,0.128676414,1.029465914,0.221898079
1.73E+18,16.12054272,0.110217996,0.893671811,0.222637445
1.73E+18,16.13053979,0.109950081,0.757628262,0.218266398
1.73E+18,16.14053589,0.120321855,0.620118499,0.221537113
1.73E+18,16.15053271,0.11654789,0.500430703,0.250541627
1.73E+18,16.16052905,0.089848876,0.450403452,0.290018082
1.73E+18,16.1705249,0.060406029,0.426749498,0.291118234
1.73E+18,16.18052173,0.07227058,0.336467445,0.259373993
1.73E+18,16.19051782,0.119052999,0.201893359,0.214105323
1.73E+18,16.20051489,0.17206724,0.111131079,0.176179871
1.73E+18,16.21051074,0.194311559,0.09694948,0.143311933
1.73E+18,16.22050806,0.179820895,0.145491883,0.088364244
1.73E+18,16.23050439,0.145194471,0.200723991,-0.029451072
1.73E+18,16.24050049,0.127345279,0.190650031,-0.196728542
1.73E+18,16.25049731,0.116606355,0.112312362,-0.367134631
1.73E+18,16.26049365,0.108760118,-0.00693527,-0.500796199
1.73E+18,16.27049048,0.112185739,-0.114219651,-0.57212466
1.73E+18,16.28048657,0.125447303,-0.189901963,-0.576577663
1.73E+18,16.29048242,0.132370457,-0.275335371,-0.526266038
1.73E+18,16.30047949,0.129341543,-0.359095842,-0.44643867
1.73E+18,16.31047534,0.106444485,-0.429928482,-0.366373658
1.73E+18,16.32047266,0.064619243,-0.4502213,-0.326992571
1.73E+18,16.33046851,0.009192737,-0.414490461,-0.32815662
1.73E+18,16.34046436,-0.03571083,-0.326513439,-0.344481319
1.73E+18,16.35046143,-0.059362628,-0.206712738,-0.34239608
1.73E+18,16.36045752,-0.055555012,-0.086803757,-0.315577656
1.73E+18,16.37045459,-0.016588971,-0.024727065,-0.23677659
1.73E+18,16.38045068,0.046920992,-0.011290111,-0.098867588
1.73E+18,16.39044751,0.085997552,-0.0136787,0.063271515
1.73E+18,16.4004436,0.060241375,0.009433444,0.202337995
1.73E+18,16.41043945,0.014017953,0.017664209,0.271882474
1.73E+18,16.42043652,-0.000617903,0.009749793,0.281198502
1.73E+18,16.43043262,-0.001050933,0.015286503,0.263192326
1.73E+18,16.44042944,-0.006667323,0.011773361,0.238317415
1.73E+18,16.45042529,0.006352339,-0.036266871,0.235985816
1.73E+18,16.46042139,0.040078141,-0.13283594,0.271735013
1.73E+18,16.47041846,0.066710025,-0.256452948,0.338964909
1.73E+18,16.48041455,0.063743204,-0.36433506,0.382522017
1.73E+18,16.49041162,0.040172894,-0.34333843,0.362163484
1.73E+18,16.50040771,0.020252822,-0.067415744,0.300795108
1.73E+18,16.51040332,0.014816247,0.26633507,0.232857868
1.73E+18,16.52040039,0.024381422,0.510715961,0.20412302
1.73E+18,16.53039648,0.064806342,0.654898465,0.241463199
1.73E+18,16.54039331,0.114629313,0.73981452,0.320223838
1.73E+18,16.55038965,0.178674325,0.778622389,0.418943763
1.73E+18,16.56038647,0.212542042,0.786787689,0.50741595
1.73E+18,16.57038232,0.184485376,0.798199058,0.550658524
1.73E+18,16.58037866,0.109156273,0.848182917,0.506017804
1.73E+18,16.59037549,0.013671894,0.881541252,0.378692061
1.73E+18,16.60037158,0.003351763,0.871176958,0.194042116
1.73E+18,16.61036865,0.029747153,0.796141326,0.051633317
1.73E+18,16.62036426,0.045257401,0.681572974,-0.017190756
1.73E+18,16.63036035,0.074481331,0.548616767,-0.022893915
1.73E+18,16.64035742,0.114915214,0.390799046,0.017666718
1.73E+18,16.65035352,0.144191355,0.233046427,0.05852041
1.73E+18,16.66035034,0.155010834,0.106883392,0.064736977
1.73E+18,16.67034668,0.162092969,0.071957901,0.020075506
1.73E+18,16.68034253,0.152143136,0.158605441,-0.11384768
1.73E+18,16.69033936,0.116112962,0.276280135,-0.303845018
1.73E+18,16.70033545,0.060743306,0.312333137,-0.484522402
1.73E+18,16.71033252,0.023962125,0.20693852,-0.553188801
1.73E+18,16.72032837,0.059560291,-0.001821063,-0.482171834
1.73E+18,16.73032446,0.123702258,-0.177895159,-0.30706048
1.73E+18,16.74032129,0.145352796,-0.250200212,-0.074772462
1.73E+18,16.75031738,0.125205725,-0.229436085,0.132932261
1.73E+18,16.76031445,0.082484715,-0.122007482,0.263827264
1.73E+18,16.77031055,0.027380982,0.147656232,0.312583089
1.73E+18,16.78030762,-0.032682426,0.508423507,0.289046049
1.73E+18,16.79030347,-0.092951097,0.787119806,0.211352855
1.73E+18,16.80029932,-0.123936117,0.914935708,0.124317221
1.73E+18,16.81029663,-0.127892777,0.918091834,0.067763127
1.73E+18,16.82029248,-0.121540599,0.84110266,0.070582151
1.73E+18,16.83028955,-0.111754812,0.681039214,0.129832149
1.73E+18,16.8402854,-0.082232065,0.457741648,0.220440656
1.73E+18,16.85028149,-0.052994281,0.214995593,0.295102894
1.73E+18,16.86027832,-0.053464331,0.031090461,0.332692862
1.73E+18,16.87027466,-0.062432792,-0.056289986,0.3195467
1.73E+18,16.88027148,-0.059803337,-0.054073714,0.271225989
1.73E+18,16.89026733,-0.056269057,0.030067796,0.210782364
1.73E+18,16.90026343,-0.035023719,0.143501073,0.157467619
1.73E+18,16.9102605,0.001612056,0.248782769,0.138942674
1.73E+18,16.92025635,0.044467039,0.336293399,0.171855867
1.73E+18,16.93025366,0.080299608,0.4002074,0.248863563
1.73E+18,16.94024951,0.119770497,0.417223185,0.339637578
1.73E+18,16.95024536,0.16379042,0.359089047,0.430648983
1.73E+18,16.96024243,0.188489452,0.237289667,0.491891086
1.73E+18,16.97023853,0.17280291,0.059483975,0.509415746
1.73E+18,16.98023535,0.129168898,-0.104298271,0.479788244
1.73E+18,16.99023169,0.099207811,-0.2267102,0.419090003
1.73E+18,17.00022852,0.095813133,-0.316803187,0.36483869
1.73E+18,17.01022437,0.105853781,-0.381347567,0.349935621
1.73E+18,17.02022046,0.110208213,-0.41797787,0.360795319
1.73E+18,17.03021753,0.105092011,-0.385018587,0.370002955
1.73E+18,17.04021338,0.099101774,-0.326099098,0.345309854
1.73E+18,17.05021069,0.081545681,-0.256487787,0.272333115
1.73E+18,17.0602063,0.039816048,-0.195242524,0.170597032
1.73E+18,17.07020239,0.00165561,-0.189562798,0.080593921
1.73E+18,17.08019946,-0.033549413,-0.229552492,0.033264358
1.73E+18,17.09019556,-0.06634225,-0.317866921,0.016434776
1.73E+18,17.10019263,-0.071740016,-0.44230637,0.024158992
1.73E+18,17.11018872,-0.071526162,-0.517948389,0.057859696
1.73E+18,17.12018433,-0.111006051,-0.531941652,0.06200948
1.73E+18,17.13018164,-0.150480226,-0.514460146,-0.00617064
1.73E+18,17.14017749,-0.168733791,-0.495393515,-0.135465488
1.73E+18,17.15017456,-0.183007523,-0.472634673,-0.281363547
1.73E+18,17.16017065,-0.203485712,-0.445536494,-0.402834654
1.73E+18,17.1701665,-0.200975686,-0.430379122,-0.476101667
1.73E+18,17.18016333,-0.19446899,-0.467877567,-0.483493328
1.73E+18,17.19015967,-0.190110192,-0.557102263,-0.441100061
1.73E+18,17.20015649,-0.188805968,-0.649688721,-0.386098504
1.73E+18,17.21015259,-0.18932955,-0.696110547,-0.334254205
1.73E+18,17.22014819,-0.178504035,-0.697592258,-0.294798315
1.73E+18,17.23014551,-0.144801199,-0.663477719,-0.266367495
1.73E+18,17.2401416,-0.120023146,-0.543336689,-0.244105041
1.73E+18,17.25013867,-0.099541575,-0.393040121,-0.216146111
1.73E+18,17.26013452,-0.095124215,-0.281631619,-0.192277387
1.73E+18,17.27013159,-0.081264324,-0.215670452,-0.168263659
1.73E+18,17.28012744,-0.057242844,-0.188775152,-0.146697238
1.73E+18,17.29012354,-0.036347948,-0.13380459,-0.129242346
1.73E+18,17.30012061,-0.000158852,0.007641669,-0.111934453
1.73E+18,17.3101167,0.01976319,0.243195608,-0.099522255
1.73E+18,17.32011377,0.02425795,0.448073983,-0.083589852
1.73E+18,17.33010986,0.033834945,0.562273741,-0.058976918
1.73E+18,17.34010547,0.020558877,0.562174022,-0.033412207
1.73E+18,17.35010254,-0.031080615,0.409808218,-0.041798498
1.73E+18,17.36009863,-0.117505915,0.146265864,-0.090025134
1.73E+18,17.37009546,-0.183566421,-0.103097886,-0.175541624
1.73E+18,17.3800918,-0.220220089,-0.273427993,-0.287015647
1.73E+18,17.39008765,-0.217020303,-0.347426832,-0.388761461
1.73E+18,17.40008447,-0.192235738,-0.316965908,-0.471248895
1.73E+18,17.41008081,-0.151002288,-0.228795052,-0.539568841
1.73E+18,17.42007764,-0.114627406,-0.128460273,-0.587910414
1.73E+18,17.43007373,-0.101860479,-0.065930307,-0.607016504
1.73E+18,17.44006958,-0.114439949,-0.047024328,-0.571843982
1.73E+18,17.45006641,-0.134245619,-0.045707129,-0.488161325
1.73E+18,17.4600625,-0.149308041,-0.079677559,-0.379604459
1.73E+18,17.47005957,-0.13016443,-0.163695768,-0.25260976
1.73E+18,17.48005566,-0.09091717,-0.289403379,-0.076915428
1.73E+18,17.49005176,-0.077768616,-0.382636636,0.115766145
1.73E+18,17.50004858,-0.074476793,-0.389679343,0.264422536
1.73E+18,17.51004468,-0.047986601,-0.346061558,0.34528169
1.73E+18,17.5200415,-0.036332697,-0.286538452,0.357593924
1.73E+18,17.5300376,-0.064922795,-0.214073062,0.325550765
1.73E+18,17.54003467,-0.109109022,-0.163071379,0.274649024
1.73E+18,17.55003052,-0.14108558,-0.173523232,0.220733345
1.73E+18,17.56002661,-0.14803426,-0.263368785,0.18968001
1.73E+18,17.57002344,-0.141771302,-0.386685908,0.206966594
1.73E+18,17.58001953,-0.129860982,-0.48045963,0.274836183
1.73E+18,17.5900166,-0.119362801,-0.529229343,0.371347278
1.73E+18,17.6000127,-0.107019581,-0.540298223,0.447723567
1.73E+18,17.61000854,-0.113617294,-0.489480615,0.491763711
1.73E+18,17.62000562,-0.141375929,-0.338927776,0.483891815
1.73E+18,17.63000146,-0.193133667,-0.103138171,0.407984525
1.73E+18,17.63999878,-0.221339986,0.134116054,0.265839934
1.73E+18,17.64999463,-0.193023935,0.327429056,0.08710137
1.73E+18,17.65999048,-0.135643557,0.463272989,-0.080285311
1.73E+18,17.66998755,-0.056476556,0.572930813,-0.169187486
1.73E+18,17.67998364,0.020703495,0.663271308,-0.161138177
1.73E+18,17.68998047,0.068687268,0.714622378,-0.098678
1.73E+18,17.69997681,0.098474354,0.673446119,-0.073214322
1.73E+18,17.70997266,0.147971332,0.547869503,-0.140382171
1.73E+18,17.71996948,0.194571033,0.338702887,-0.316415638
1.73E+18,17.72996533,0.213739678,0.098267406,-0.536592722
1.73E+18,17.73996265,0.212496951,-0.137576476,-0.702011883
1.73E+18,17.7499585,0.204780713,-0.336691976,-0.750609517
1.73E+18,17.75995459,0.198170945,-0.478676051,-0.688823402
1.73E+18,17.76995166,0.19251892,-0.593628168,-0.580676377
1.73E+18,17.77994751,0.186851487,-0.693889081,-0.506950855
1.73E+18,17.78994458,0.158180147,-0.782112658,-0.475713611
1.73E+18,17.79994067,0.117903791,-0.849593937,-0.482121319
1.73E+18,17.80993652,0.073496647,-0.849872768,-0.500285447
1.73E+18,17.81993384,0.040033206,-0.805615127,-0.510224998
1.73E+18,17.82992944,0.061437566,-0.789141595,-0.470221609
1.73E+18,17.83992651,0.119048372,-0.791650116,-0.359285116
1.73E+18,17.84992261,0.143302307,-0.768345594,-0.199299693
1.73E+18,17.8599187,0.119278781,-0.692931056,-0.056521036
1.73E+18,17.86991553,0.089929149,-0.576827109,0.008777011
1.73E+18,17.87991187,0.064525522,-0.457201958,-0.033313423
1.73E+18,17.88990845,0.034784678,-0.395347387,-0.164426714
1.73E+18,17.89990454,0.03644954,-0.413582385,-0.321963668
1.73E+18,17.90990161,0.058992401,-0.487129033,-0.404487282
1.73E+18,17.91989771,0.080756478,-0.564057291,-0.37608552
1.73E+18,17.92989355,0.084027633,-0.616224885,-0.266868472
1.73E+18,17.93989087,0.082504086,-0.652561188,-0.142051786
1.73E+18,17.94988647,0.085215189,-0.683862329,-0.064837955
1.73E+18,17.95988354,0.066253118,-0.685606658,-0.059266463
1.73E+18,17.96987964,0.046988081,-0.639558971,-0.1015018
1.73E+18,17.97987573,0.037525222,-0.552993953,-0.153223246
1.73E+18,17.98987256,0.044112552,-0.479479313,-0.167378485
1.73E+18,17.99986865,0.07313747,-0.456126601,-0.117469259
1.73E+18,18.00986548,0.123483203,-0.456646979,-0.006655926
1.73E+18,18.01986157,0.139436364,-0.342130482,0.079147801
1.73E+18,18.02985767,0.095426306,-0.082962058,0.059969049
1.73E+18,18.03985474,0.050542988,0.251939446,-0.073087521
1.73E+18,18.04985034,0.058691729,0.532869935,-0.220978707
1.73E+18,18.05984766,0.073165804,0.698310435,-0.285932183
1.73E+18,18.06984351,0.078076407,0.782868445,-0.253976107
1.73E+18,18.0798396,0.071196586,0.808942139,-0.173804358
1.73E+18,18.08983667,0.069842368,0.749186158,-0.09799695
1.73E+18,18.09983252,0.06549827,0.689922929,-0.052732568
1.73E+18,18.10982959,0.045378625,0.672837436,-0.034494709
1.73E+18,18.11982568,0.012273645,0.682086468,-0.029799096
1.73E+18,18.12982153,-0.005319996,0.662165463,-0.037968606
1.73E+18,18.13981885,-0.008770372,0.593395412,-0.04154785
1.73E+18,18.1498147,0.000733918,0.506872773,-0.043147881
1.73E+18,18.15981177,-0.003254158,0.454676062,-0.026753698
1.73E+18,18.16980762,0.034251142,0.37937814,0.051774397
1.73E+18,18.17980371,0.089066878,0.243927553,0.201844707
1.73E+18,18.18980054,0.101550974,0.112858221,0.373340815
1.73E+18,18.19979688,0.076971002,0.061467648,0.505063176
1.73E+18,18.2097937,0.042994387,0.095883138,0.553824604
1.73E+18,18.21978955,0.00908153,0.214707643,0.513576865
1.73E+18,18.22978564,-0.021585569,0.400788546,0.410806298
1.73E+18,18.23978247,-0.040966678,0.602640986,0.271056294
1.73E+18,18.24977832,-0.042657785,0.759780526,0.135224968
1.73E+18,18.25977539,-0.04881328,0.799324572,0.03426189
1.73E+18,18.26977124,-0.054440271,0.669025719,-0.013207359
1.73E+18,18.27976733,-0.064166695,0.410007119,-0.004152994
1.73E+18,18.28976416,-0.05908246,0.124288537,0.023384359
1.73E+18,18.2997605,-0.057257384,-0.068727642,0.049810443
1.73E+18,18.30975732,-0.078219123,-0.138291001,0.043955751
1.73E+18,18.31975317,-0.085960127,-0.08582224,0.018288225
1.73E+18,18.32974927,-0.070032023,0.062301178,-0.020040788
1.73E+18,18.33974634,-0.045445617,0.27223748,-0.053437766
1.73E+18,18.34974219,-0.023824746,0.457089871,-0.066990055
1.73E+18,18.3597395,-0.013844104,0.508219421,-0.06205184
1.73E+18,18.36973535,-0.014334391,0.400361449,-0.038310558
1.73E+18,18.3797312,-0.0187381,0.190348431,-0.018439008
1.73E+18,18.38972827,-0.010566191,0.01407673,-0.005311488
1.73E+18,18.39972437,0.014056688,-0.033023566,0.018686114
1.73E+18,18.40972119,0.039472833,0.066598095,0.066662155
1.73E+18,18.41971753,0.03821481,0.297919601,0.141809076
1.73E+18,18.42971313,0.040627103,0.484453261,0.194764435
1.73E+18,18.43971021,0.053476427,0.529560924,0.226375759
1.73E+18,18.4497063,0.044366818,0.43603763,0.245325476
1.73E+18,18.45970337,0.007233182,0.320324093,0.24373351
1.73E+18,18.46969922,-0.029200725,0.261418164,0.231114388
1.73E+18,18.47969531,-0.064082287,0.280846775,0.198928982
1.73E+18,18.48969214,-0.085792638,0.350681245,0.171028912
1.73E+18,18.49968823,-0.1109984,0.402030706,0.149539083
1.73E+18,18.5096853,-0.135714129,0.422506958,0.135450959
1.73E+18,18.5196814,-0.149551019,0.439200342,0.10879761
1.73E+18,18.529677,-0.137265593,0.474291742,0.076999202
1.73E+18,18.53967432,-0.10746377,0.5487203,0.067044742
1.73E+18,18.54967017,-0.063632399,0.651909292,0.097027414
1.73E+18,18.55966748,-0.008285172,0.733195305,0.18432112
1.73E+18,18.56966333,0.039002713,0.763843,0.307395905
1.73E+18,18.57966016,0.083946511,0.767410636,0.42061016
1.73E+18,18.58965625,0.130782455,0.775365233,0.49250114
1.73E+18,18.59965234,0.207260013,0.774705231,0.541771829
1.73E+18,18.60964917,0.279384792,0.71513617,0.594445407
1.73E+18,18.61964526,0.325920492,0.624044836,0.662837744
1.73E+18,18.62964233,0.378079563,0.510937691,0.747435212
1.73E+18,18.63963843,0.413885862,0.393382877,0.824869931
1.73E+18,18.64963403,0.36651355,0.274594426,0.855957031
1.73E+18,18.65963135,0.263164133,0.172933489,0.806639552
1.73E+18,18.6696272,0.163859636,0.052466478,0.664807558
1.73E+18,18.67962427,0.072532348,-0.074537612,0.443401575
1.73E+18,18.68962036,0.00031195,-0.100385189,0.181421086
1.73E+18,18.69961621,-0.065790437,-0.019391619,-0.076587006
1.73E+18,18.70961328,-0.118524224,0.106577501,-0.266876519
1.73E+18,18.71960938,-0.133503586,0.214511946,-0.368690044
1.73E+18,18.7296062,-0.119058333,0.251673967,-0.388451755
1.73E+18,18.73960254,-0.096003391,0.237195387,-0.339590639
1.73E+18,18.74959839,-0.093037166,0.124634221,-0.293025523
1.73E+18,18.75959497,-0.10751608,-0.019468382,-0.2596488
1.73E+18,18.76959131,-0.150006011,-0.144787416,-0.247109845
1.73E+18,18.77958813,-0.199064404,-0.219389245,-0.252812088
1.73E+18,18.78958423,-0.238223255,-0.250334382,-0.251407266
1.73E+18,18.79958057,-0.251554668,-0.310189337,-0.264281929
1.73E+18,18.80957739,-0.268949896,-0.394458413,-0.303082049
1.73E+18,18.81957324,-0.289863378,-0.44033885,-0.363653481
1.73E+18,18.82957031,-0.301480889,-0.429266751,-0.427784264
1.73E+18,18.83956641,-0.300734103,-0.388803393,-0.478932828
1.73E+18,18.84956226,-0.278498292,-0.339137286,-0.478780776
1.73E+18,18.85955933,-0.243706733,-0.299570948,-0.417549491
1.73E+18,18.86955518,-0.200107068,-0.294005483,-0.303449273
1.73E+18,18.879552,-0.154920727,-0.298157156,-0.153186798
1.73E+18,18.88954834,-0.109386548,-0.308530718,-0.006979255
1.73E+18,18.89954443,-0.058903143,-0.33963713,0.097195283
1.73E+18,18.90954126,-0.015512258,-0.365730524,0.166267827
1.73E+18,18.91953735,0.044294674,-0.34918493,0.238892719
1.73E+18,18.92953418,0.096577585,-0.354755998,0.339331716
1.73E+18,18.93953027,0.127675429,-0.432851344,0.435232073
1.73E+18,18.94952637,0.142919362,-0.528458297,0.520177007
1.73E+18,18.95952319,0.147728115,-0.623604476,0.611644983
1.73E+18,18.96951929,0.181663707,-0.710309803,0.681522071
1.73E+18,18.97951611,0.256810665,-0.663255632,0.700219214
1.73E+18,18.98951221,0.316836447,-0.402299643,0.680015147
1.73E+18,18.9995083,0.299713254,-0.013446276,0.635841966
1.73E+18,19.00950537,0.261937916,0.305431306,0.568482637
1.73E+18,19.01950146,0.223271519,0.458032846,0.487881154
1.73E+18,19.02949854,0.182558969,0.42705524,0.38731885
1.73E+18,19.03949414,0.131890774,0.229654849,0.260616422
1.73E+18,19.04949023,0.073206156,-0.066034071,0.131734878
1.73E+18,19.0594873,0.018864796,-0.365263551,0.000787679
1.73E+18,19.0694834,-0.062545106,-0.555541039,-0.159554601
1.73E+18,19.07947925,-0.131814584,-0.607127488,-0.353243858
1.73E+18,19.08947632,-0.205692798,-0.563106775,-0.570631027
1.73E+18,19.09947241,-0.271985143,-0.516052961,-0.781291783
1.73E+18,19.10946924,-0.292524755,-0.508310616,-0.962907374
1.73E+18,19.11946533,-0.284253627,-0.506289482,-1.076768756
1.73E+18,19.12946143,-0.30147177,-0.461290836,-1.117049813
1.73E+18,19.13945801,-0.320030272,-0.345306724,-1.105021954
1.73E+18,19.1494541,-0.308254272,-0.179048747,-1.051762342
1.73E+18,19.15945117,-0.275795937,-0.013716016,-0.973903656
1.73E+18,19.16944727,-0.229935482,0.097377211,-0.847399771
1.73E+18,19.17944336,-0.173380584,0.148921996,-0.62531364
1.73E+18,19.18944043,-0.063735314,0.190832958,-0.299026072
1.73E+18,19.19943628,0.068892658,0.230245635,0.084586635
1.73E+18,19.20943335,0.14631021,0.25422582,0.448118776
1.73E+18,19.2194292,0.193137884,0.252509385,0.726804316
1.73E+18,19.22942529,0.202674925,0.239189029,0.895858586
1.73E+18,19.23942261,0.168364331,0.218902081,0.935477257
1.73E+18,19.24941846,0.102692105,0.210061714,0.838304639
1.73E+18,19.25941528,0.044849019,0.192210168,0.645363331
1.73E+18,19.26941162,0.026456963,0.122396745,0.411510348
1.73E+18,19.27940747,0.024720071,-0.01984499,0.178373322
1.73E+18,19.28940454,0.004765005,-0.224069759,0.007578949
1.73E+18,19.29940039,-0.028157439,-0.462922633,-0.115925863
1.73E+18,19.30939746,-0.069995433,-0.747804701,-0.202745989
1.73E+18,19.31939331,-0.104201183,-1.043952465,-0.267939806
1.73E+18,19.32938965,-0.114490576,-1.267954588,-0.311743766
1.73E+18,19.33938647,-0.139645875,-1.389446974,-0.336761832
1.73E+18,19.34938257,-0.210698485,-1.407629728,-0.357628763
1.73E+18,19.35937964,-0.273718357,-1.363628745,-0.387252599
1.73E+18,19.36937549,-0.276873946,-1.280405521,-0.389308572
1.73E+18,19.37937134,-0.238672286,-1.131838083,-0.322434664
1.73E+18,19.38936865,-0.202180326,-0.8918221,-0.213609919
1.73E+18,19.3993645,-0.148857594,-0.588705838,-0.100654401
1.73E+18,19.40936182,-0.060853172,-0.264503568,-0.032905187
1.73E+18,19.41935742,0.008258187,0.037925173,-0.035359811
1.73E+18,19.42935352,0.025297359,0.311947942,-0.105670728
1.73E+18,19.43935034,0.001647927,0.544153929,-0.202689528
1.73E+18,19.44934668,-0.01969864,0.630804956,-0.305570096
1.73E+18,19.45934351,0.00583998,0.457716733,-0.324794799
1.73E+18,19.46933936,0.04285872,0.077395223,-0.241051152
1.73E+18,19.47933545,0.041660611,-0.411168963,-0.091983691
1.73E+18,19.48933252,0.022621138,-0.875545144,0.02661459
1.73E+18,19.49932837,-0.007154296,-1.211559057,0.051054288
1.73E+18,19.50932568,-0.035384867,-1.399427533,-0.031657368
1.73E+18,19.51932129,-0.040293671,-1.395491958,-0.159233958
1.73E+18,19.52931738,-0.009311789,-1.183542132,-0.237827569
1.73E+18,19.53931445,0.043951172,-0.866835117,-0.216659144
1.73E+18,19.54931055,0.099204838,-0.56151861,-0.123803765
1.73E+18,19.55930762,0.145071507,-0.320703775,0.005142619
1.73E+18,19.56930371,0.170436785,-0.155331045,0.126159057
1.73E+18,19.57929932,0.153930098,-0.053953968,0.209811077
1.73E+18,19.58929663,0.108672611,0.003423568,0.214162678
1.73E+18,19.59929248,0.055020146,0.021053769,0.127643928
1.73E+18,19.60928955,0.005466441,-0.015454707,-0.023033207
1.73E+18,19.61928564,-0.007297688,-0.068727955,-0.194692031
1.73E+18,19.62928149,-0.001800391,-0.094845578,-0.304429173
1.73E+18,19.63927832,0.025236163,-0.089253955,-0.306071758
1.73E+18,19.64927466,0.080048814,-0.055136196,-0.196566582
1.73E+18,19.65927051,0.139810473,0.047543436,-0.006788157
1.73E+18,19.66926758,0.166960597,0.24095577,0.190276444
1.73E+18,19.67926367,0.164775401,0.482459515,0.331531525
1.73E+18,19.6892605,0.131642744,0.726107597,0.385626972
1.73E+18,19.69925635,0.0714866,0.958414137,0.317561388
1.73E+18,19.70925269,0.019769873,1.120865464,0.161630377
1.73E+18,19.71924951,0.025015265,1.144314051,0.004231554
1.73E+18,19.72924561,0.100947313,1.01849401,-0.055684242
1.73E+18,19.73924268,0.172807574,0.8248474,0.035290077
1.73E+18,19.74923853,0.185557723,0.682218373,0.220337167
1.73E+18,19.75923438,0.173552155,0.617544591,0.410319477
1.73E+18,19.76923169,0.166677728,0.592126012,0.544895649
1.73E+18,19.77922754,0.126351371,0.641129315,0.607586026
1.73E+18,19.78922461,0.047239773,0.796086431,0.570198417
1.73E+18,19.79922046,-0.037143961,1.035274744,0.446774721
1.73E+18,19.80921655,-0.048250407,1.224700093,0.272187471
1.73E+18,19.81921338,0.012422631,1.285021305,0.108419955
1.73E+18,19.82920972,0.057687845,1.268397689,0.007893885
1.73E+18,19.83920654,0.072769284,1.160044789,-0.047713075
1.73E+18,19.84920239,0.08527948,0.934202552,-0.10514228
1.73E+18,19.85919849,0.111325756,0.611402631,-0.168556869
1.73E+18,19.86919556,0.137838066,0.267069966,-0.20707497
1.73E+18,19.87919141,0.133561969,-0.008883838,-0.196742907
1.73E+18,19.88918872,0.111104064,-0.186975017,-0.151092336
1.73E+18,19.89918433,0.094191082,-0.311998695,-0.103541747
1.73E+18,19.90918042,0.102184556,-0.376291126,-0.059841406
1.73E+18,19.91917749,0.108550295,-0.366709203,-0.014768296
1.73E+18,19.92917358,0.082068354,-0.270957083,0.002257026
1.73E+18,19.93917065,0.036438759,-0.087637983,-0.032266561
1.73E+18,19.94916675,-0.017410358,0.0931824,-0.13904947
1.73E+18,19.95916235,-0.08166191,0.228749633,-0.301937699
1.73E+18,19.96915942,-0.094807811,0.497180015,-0.479547381
1.73E+18,19.97915552,-0.06724751,0.782345593,-0.595049798
1.73E+18,19.98915161,-0.046249013,0.876779974,-0.58551383
1.73E+18,19.99914844,-0.020237636,0.770642519,-0.458536625
1.73E+18,20.00914453,0.005046149,0.425462514,-0.263914943
1.73E+18,20.01914136,-0.002034996,0.07634332,-0.060352497
1.73E+18,20.02913745,-0.042096395,-0.05126524,0.077233858
1.73E+18,20.03913354,-0.09897656,0.104715809,0.117270045
1.73E+18,20.04913062,-0.100805618,0.513300955,0.071467407
1.73E+18,20.05912622,-0.081215002,0.964348376,0.002198878
1.73E+18,20.06912354,-0.084011056,1.216248989,-0.035758357
1.73E+18,20.07911938,-0.086319342,1.170288205,-0.010015395
1.73E+18,20.08911548,-0.055998724,0.872427285,0.079783469
1.73E+18,20.09911255,0.000112262,0.536969364,0.207133323
1.73E+18,20.10910864,0.044290375,0.333753139,0.314543664
1.73E+18,20.11910571,0.105970189,0.311563551,0.384932905
1.73E+18,20.12910156,0.165406883,0.409573734,0.405914366
1.73E+18,20.13909741,0.206849113,0.547165334,0.40362075
1.73E+18,20.14909473,0.21183002,0.622536838,0.391108423
1.73E+18,20.15909058,0.207055017,0.622102916,0.3750135
1.73E+18,20.16908765,0.235673875,0.530576468,0.339731395
1.73E+18,20.1790835,0.286998749,0.384028554,0.29408145
1.73E+18,20.18907959,0.34228304,0.238001049,0.261788756
1.73E+18,20.19907642,0.380342096,0.097909972,0.252413541
1.73E+18,20.20907275,0.381209493,-0.011778972,0.248771429
1.73E+18,20.21906836,0.34744215,-0.056642506,0.244149432
1.73E+18,20.22906543,0.30038622,-0.039509058,0.224435374
1.73E+18,20.23906128,0.257943422,0.024620224,0.190559521
1.73E+18,20.24905859,0.217281476,0.145273671,0.147753209
1.73E+18,20.25905444,0.181569621,0.304327071,0.114302032
1.73E+18,20.26905054,0.172259748,0.44794175,0.099930547
1.73E+18,20.27904761,0.173747167,0.560260832,0.107896753
1.73E+18,20.28904346,0.131164551,0.637674928,0.128759965
1.73E+18,20.29904053,0.090137169,0.678027987,0.133105785
1.73E+18,20.30903662,0.07641869,0.712468743,0.122200146
1.73E+18,20.31903247,0.082827762,0.726766407,0.111712992
1.73E+18,20.32902954,0.071394548,0.677841246,0.117737859
1.73E+18,20.33902539,0.030453915,0.557597935,0.122994989
1.73E+18,20.34902246,-0.035398602,0.417870432,0.105495624
1.73E+18,20.35901831,-0.105963118,0.280726343,0.042321198
1.73E+18,20.36901465,-0.155783936,0.185152933,-0.054665271
1.73E+18,20.37901147,-0.165654689,0.112240985,-0.157187968
1.73E+18,20.38900732,-0.161970198,0.026448321,-0.231769785
1.73E+18,20.39900439,-0.137942761,-0.092460126,-0.25926131
1.73E+18,20.40900049,-0.090888694,-0.204975203,-0.224783763
1.73E+18,20.41899634,-0.036614135,-0.273819685,-0.120425381
1.73E+18,20.42899365,0.003145795,-0.275269508,0.05367532
1.73E+18,20.43898926,0.032781839,-0.231841415,0.246799991
1.73E+18,20.44898535,0.043595608,-0.152544454,0.408218443
1.73E+18,20.45898242,0.047864165,-0.073258974,0.493289828
1.73E+18,20.46897852,0.069187567,-0.016006067,0.503307819
1.73E+18,20.47897559,0.117007129,0.060156636,0.471291244
1.73E+18,20.48897168,0.114079513,0.157148957,0.430990934
1.73E+18,20.49896729,0.045633417,0.218275934,0.378984511
1.73E+18,20.5089646,-0.017748216,0.172474623,0.300887853
1.73E+18,20.51896045,-0.036617685,0.045632668,0.232117146
1.73E+18,20.52895752,-0.036847249,-0.132300854,0.211233169
1.73E+18,20.53895361,-0.020685514,-0.306026787,0.251328409
1.73E+18,20.54894946,-0.00474756,-0.474322319,0.320903748
1.73E+18,20.55894629,-0.004826711,-0.624749064,0.371854633
1.73E+18,20.56894263,-0.014273741,-0.710290611,0.36871478
1.73E+18,20.57893945,-0.040679507,-0.683680832,0.343764961
1.73E+18,20.58893555,-0.066568635,-0.595186114,0.285269439
1.73E+18,20.59893164,-0.071069978,-0.509037435,0.198872745
1.73E+18,20.60892847,-0.041908629,-0.458928764,0.114899814
1.73E+18,20.61892432,-0.013207365,-0.460383117,0.073704638
1.73E+18,20.62892065,-0.020804033,-0.489091456,0.067422777
1.73E+18,20.63891748,-0.046189532,-0.499167055,0.071958445
1.73E+18,20.64891357,-0.07613758,-0.511424005,0.060372371
1.73E+18,20.65891064,-0.113235734,-0.549942195,0.021395974
